time_s,temp_c,temp_f,humidity_pct,pressure_hpa,accel_x_avg,accel_y_avg,accel_z_avg,gyro_x_avg_dps,gyro_y_avg_dps,gyro_z_avg_dps,accel_peak,gyro_peak_dps,samples,status
1.00,25.58,78.04,33.18,976.63,9.325,-0.777,3.267,-0.24,18.48,-1.95,19.325,98.72,475,0
2.00,25.63,78.13,33.16,976.64,8.646,-0.567,5.113,-6.61,4.48,-0.53,10.253,19.78,461,0
3.00,25.64,78.15,33.22,976.64,8.417,-0.599,5.474,-8.54,3.10,-1.79,10.290,14.50,459,0
4.00,25.65,78.17,33.15,976.65,8.461,-0.590,5.412,-8.45,-0.58,-2.02,10.191,9.52,461,0
5.00,25.65,78.17,33.34,976.65,8.504,-0.583,5.341,-8.46,1.18,-1.84,10.226,12.52,458,0
6.00,25.61,78.10,33.35,976.63,8.389,-0.597,5.526,-8.59,1.83,-1.88,10.190,11.31,460,0
7.00,25.61,78.10,33.67,976.65,8.404,-0.596,5.494,-8.87,1.23,-2.16,10.144,14.37,460,0
8.00,25.62,78.12,33.34,976.63,8.344,-0.601,5.587,-8.52,0.36,-1.98,10.171,9.61,461,0
9.00,25.63,78.13,33.24,976.64,8.383,-0.594,5.526,-8.45,0.42,-1.93,10.198,9.85,460,0
10.00,25.64,78.15,33.11,976.67,8.383,-0.581,5.510,-8.99,5.23,-2.04,10.267,30.54,461,0
11.00,25.63,78.13,33.10,976.60,8.042,-0.503,6.055,5.08,-3.46,8.26,15.338,50.98,458,0
12.00,25.63,78.13,33.11,976.60,8.635,-0.570,5.110,-11.23,-0.38,-3.69,10.972,36.76,460,0
13.00,25.65,78.17,32.99,976.57,8.718,-0.567,4.973,-11.84,-1.45,-4.07,10.321,25.62,461,0
14.00,25.64,78.15,33.00,976.60,8.631,-0.578,5.117,-8.42,4.67,-1.60,10.467,14.54,459,0
15.00,25.65,78.17,32.88,976.65,8.709,-0.561,4.975,-8.10,-4.12,-2.03,10.679,22.26,461,0
16.00,25.61,78.10,32.93,976.63,8.777,-0.554,4.857,-13.70,0.76,-4.95,10.893,39.42,459,0
17.00,25.63,78.13,32.88,976.65,9.109,-0.491,4.192,-9.04,-2.07,-2.49,10.255,18.27,459,0
18.00,25.60,78.08,32.47,976.64,9.048,-0.487,4.335,-8.51,3.88,-1.74,10.212,12.21,461,0
19.00,25.61,78.10,32.22,976.66,8.779,-0.534,4.873,-8.43,1.56,-1.74,14.413,19.23,460,0
20.00,25.60,78.08,32.08,976.63,9.237,-0.460,3.895,-2.05,-3.23,0.51,10.530,42.99,460,0
21.00,25.60,78.08,31.66,976.62,9.190,-0.485,4.011,-8.37,4.31,-1.55,11.430,15.21,460,0
22.00,25.57,78.03,31.42,976.63,9.353,-0.463,3.577,-19.71,-6.44,-6.48,11.679,102.31,461,0
23.00,25.57,78.03,31.45,976.65,9.479,-0.478,3.252,-11.80,0.34,-3.06,10.416,58.12,457,0
24.00,25.61,78.10,31.53,976.62,9.512,-0.425,3.158,-8.46,0.95,-1.93,10.242,9.52,462,0
25.00,25.64,78.15,31.55,976.62,9.508,-0.425,3.155,-8.48,0.87,-1.88,10.103,8.90,459,0
26.00,25.65,78.17,31.46,976.63,9.511,-0.425,3.156,-8.48,0.88,-1.89,10.170,8.90,461,0
27.00,25.66,78.19,31.30,976.62,9.510,-0.426,3.156,-8.47,0.88,-1.89,10.111,8.83,460,0
28.00,25.67,78.21,31.30,976.66,9.511,-0.426,3.153,-8.46,0.93,-1.91,10.133,9.45,460,0
29.00,25.68,78.22,31.53,976.62,9.510,-0.430,3.148,-8.49,0.86,-1.90,10.119,8.94,458,0
30.00,25.69,78.24,31.75,976.63,9.511,-0.424,3.153,-8.48,0.87,-1.89,10.101,8.88,460,0
31.00,25.70,78.26,31.76,976.60,9.510,-0.426,3.156,-8.47,0.89,-1.89,10.119,8.86,460,0
32.00,25.71,78.28,31.76,976.60,9.511,-0.425,3.151,-8.46,0.88,-1.89,10.130,8.89,460,0
33.00,25.72,78.30,31.86,976.60,9.509,-0.427,3.150,-8.48,0.88,-1.89,10.092,8.88,461,0
34.00,25.73,78.31,31.97,976.61,9.511,-0.428,3.148,-8.47,0.86,-1.89,10.102,8.91,460,0
35.00,25.73,78.31,31.89,976.62,9.511,-0.425,3.154,-8.49,0.89,-1.90,10.093,8.91,458,0
36.00,25.74,78.33,32.06,976.64,9.509,-0.426,3.152,-8.47,0.87,-1.89,10.110,8.89,460,0
37.00,25.75,78.35,32.27,976.59,9.515,-0.423,3.156,-8.47,0.89,-1.89,10.110,8.87,461,0
38.00,25.77,78.39,32.46,976.63,9.513,-0.426,3.152,-8.48,0.86,-1.89,10.185,8.93,460,0
39.00,25.80,78.44,32.77,976.61,9.511,-0.426,3.154,-8.48,0.88,-1.89,10.107,8.87,460,0
40.00,25.82,78.48,32.99,976.63,9.507,-0.426,3.152,-8.47,0.88,-1.89,10.108,8.88,460,0
41.00,25.83,78.49,32.86,976.61,9.507,-0.426,3.148,-8.48,0.89,-1.89,10.097,8.91,458,0
42.00,25.83,78.49,33.40,976.62,9.511,-0.425,3.150,-8.47,0.89,-1.89,10.108,8.86,460,0
43.00,25.83,78.49,34.46,976.65,9.510,-0.428,3.151,-8.47,0.88,-1.88,10.098,8.86,460,0
44.00,25.85,78.53,34.83,976.64,9.512,-0.426,3.149,-8.47,0.88,-1.89,10.102,8.88,460,0
45.00,25.86,78.55,34.85,976.63,9.509,-0.427,3.150,-8.47,0.87,-1.89,10.103,8.89,461,0
46.00,25.85,78.53,34.37,976.63,9.525,-0.515,3.019,-14.53,-3.61,-1.11,13.544,107.36,459,0
47.00,25.84,78.51,33.59,976.59,9.894,-0.626,0.905,2.82,-13.20,-4.30,15.142,102.54,452,0
48.00,25.85,78.53,33.45,976.62,9.978,-0.005,0.150,-0.03,1.22,-1.52,13.079,52.66,459,0
49.00,25.86,78.55,33.13,976.60,10.025,-0.075,0.443,17.84,-1.95,-1.24,13.056,146.05,457,0
50.00,25.87,78.57,33.21,976.61,9.984,-0.079,0.183,-5.72,4.13,-1.77,15.258,43.20,458,0
51.00,25.88,78.58,32.76,976.60,9.983,-0.102,0.288,-8.65,0.79,-1.70,16.623,57.71,459,0
52.00,25.90,78.62,32.69,976.57,9.988,-0.089,0.219,-8.44,0.97,-1.86,13.181,27.90,458,0
53.00,25.93,78.67,32.60,976.61,9.966,-0.147,0.272,-11.73,-0.14,-2.25,12.069,45.55,456,0
54.00,25.96,78.73,33.30,976.62,10.033,-0.094,0.302,-3.17,1.32,-1.61,12.624,43.05,459,0
55.00,25.99,78.78,33.02,976.63,9.975,-0.091,0.282,-6.78,1.01,-1.91,13.518,41.03,458,0
56.00,25.99,78.78,32.92,976.63,9.976,-0.091,0.277,-13.10,0.90,-2.18,10.985,33.94,459,0
57.00,26.01,78.82,32.79,976.63,9.969,-0.077,0.277,-5.75,1.30,-1.45,11.807,25.69,457,0
58.00,25.99,78.78,32.98,976.61,9.985,-0.114,0.306,-7.07,1.90,-0.77,12.262,33.55,459,0
59.00,25.99,78.78,32.88,976.64,9.992,-0.117,0.295,-8.32,-0.42,-3.16,15.415,31.85,456,0
60.00,25.99,78.78,32.86,976.64,9.966,-0.076,0.156,-10.37,-1.13,-2.25,12.188,31.84,459,0
61.00,26.00,78.80,32.78,976.66,9.978,-0.202,0.405,-6.68,3.49,-0.73,13.251,30.25,458,0
62.00,26.02,78.84,33.33,976.66,9.978,-0.320,0.505,-8.54,2.52,-0.08,11.219,21.90,459,0
63.00,26.03,78.85,33.32,976.64,9.968,-0.148,0.341,-8.33,-1.32,-4.21,11.836,37.64,458,0
64.00,25.99,78.78,32.51,976.64,9.988,-0.141,0.347,-8.08,0.85,-2.02,13.209,22.36,456,0
65.00,25.99,78.78,32.18,976.66,9.987,-0.125,0.339,-8.36,0.83,-2.02,12.040,10.22,459,0
66.00,25.98,78.76,32.10,976.62,9.991,-0.146,0.372,-6.38,0.91,-1.71,13.616,17.42,459,0
67.00,25.97,78.75,31.82,976.64,9.983,-0.117,0.304,-9.86,1.30,-1.46,22.256,70.69,458,0
68.00,26.01,78.82,31.77,976.62,9.987,-0.171,0.360,-8.75,0.02,-2.61,21.080,45.44,458,0
69.00,26.01,78.82,31.76,976.59,10.015,-0.134,0.398,-8.28,1.81,-1.64,13.466,15.01,458,0
70.00,26.02,78.84,31.95,976.60,9.870,-0.504,0.742,-8.30,4.63,2.68,12.868,56.69,456,0
71.00,26.06,78.91,32.31,976.64,9.879,-1.123,1.095,-12.65,3.73,-3.75,14.151,115.62,459,0
72.00,26.06,78.91,32.29,976.63,9.775,-1.003,1.470,-10.74,-4.32,-2.72,16.539,61.36,458,0
73.00,26.06,78.91,32.60,976.62,9.874,-1.032,1.182,-8.35,1.02,-1.91,14.126,34.50,457,0
74.00,26.08,78.94,32.46,976.65,9.876,-1.038,1.222,-8.47,1.19,-1.68,13.170,40.10,458,0
75.00,26.08,78.94,33.23,976.63,9.864,-0.750,0.941,-8.32,0.84,-1.87,17.969,75.43,458,0
76.00,26.10,78.98,33.40,976.63,9.872,-0.645,1.463,32.27,-4.20,-7.14,27.870,147.35,455,0
77.00,26.06,78.91,33.46,976.63,9.973,0.255,0.500,-7.06,-1.41,1.96,22.874,60.95,459,0
78.00,26.03,78.85,33.13,976.63,9.975,0.188,0.461,-8.47,1.01,-1.75,11.593,23.03,459,0
79.00,26.01,78.82,32.76,976.67,9.944,-0.254,0.860,26.03,4.00,5.38,28.523,115.58,458,0
80.00,26.01,78.82,32.45,976.62,9.946,-0.290,0.921,-9.69,-0.11,-1.91,13.876,61.66,458,0
81.00,26.01,78.82,32.79,976.63,9.921,-0.460,1.092,-10.30,0.57,-2.69,14.891,61.74,458,0
82.00,26.01,78.82,33.22,976.66,9.870,-0.465,1.106,-11.82,2.72,-0.33,20.819,103.64,457,0
83.00,25.99,78.78,33.66,976.65,9.887,-0.563,1.223,-3.29,-1.17,-2.93,13.483,97.84,457,0
84.00,25.99,78.78,33.52,976.65,9.913,-0.367,1.009,-9.35,1.43,-1.56,12.031,42.66,459,0
85.00,26.01,78.82,33.82,976.63,9.904,-0.430,1.149,-10.61,-0.61,-4.10,11.777,45.25,457,0
86.00,26.03,78.85,33.99,976.62,9.922,-0.481,1.124,-11.08,1.50,-1.64,12.240,44.50,459,0
87.00,26.02,78.84,33.69,976.61,9.895,-0.585,1.260,-10.16,2.89,0.26,11.347,27.11,457,0
88.00,26.00,78.80,33.65,976.60,9.885,-0.567,1.201,-8.74,-0.10,-2.94,12.576,32.98,456,0
89.00,25.84,78.51,33.52,976.64,9.931,-0.362,1.036,-8.15,0.89,-1.90,12.182,26.87,458,0
90.00,25.74,78.33,33.31,976.59,9.903,-0.523,1.151,-8.87,1.72,-1.06,13.414,59.38,459,0
91.00,25.73,78.31,33.20,976.62,9.920,-0.510,1.183,-8.04,-0.74,-3.64,13.024,63.43,458,0
92.00,25.78,78.40,33.43,976.61,9.901,-0.340,1.022,-10.12,3.05,0.18,21.367,67.64,458,0
93.00,25.79,78.42,33.15,976.60,9.903,-0.269,0.836,-2.13,0.42,-1.56,26.382,62.69,458,0
94.00,25.80,78.44,33.66,976.57,10.101,-0.271,0.557,9.72,1.59,-0.53,12.874,80.13,450,0
95.00,26.83,80.29,36.56,976.63,9.615,-0.474,2.532,17.42,2.31,4.02,21.179,82.76,458,0
96.00,26.24,79.23,34.44,976.64,9.800,-0.819,1.824,-8.54,-1.28,-3.09,10.882,19.89,458,0
97.00,26.09,78.96,33.91,976.60,9.761,-1.095,1.618,12.38,0.20,6.90,12.903,70.78,458,0
98.00,26.03,78.85,32.88,976.61,9.848,-0.661,1.884,3.67,-0.86,-1.29,13.021,45.21,459,0
99.00,25.97,78.75,32.61,976.62,9.785,-0.928,1.875,-8.54,0.68,-1.92,10.455,9.55,457,0
100.00,25.95,78.71,32.44,976.61,9.786,-0.930,1.883,-8.49,0.85,-1.89,10.854,12.05,456,0
101.00,25.90,78.62,32.76,976.63,9.790,-0.929,1.861,-8.49,0.90,-1.83,10.441,9.72,457,0
102.00,25.93,78.67,32.92,976.63,9.784,-0.926,1.864,-8.48,0.89,-1.88,10.134,8.89,458,0
103.00,25.91,78.64,33.68,976.62,9.784,-0.928,1.862,-8.48,0.87,-1.89,10.138,8.93,457,0
104.00,25.91,78.64,34.45,976.62,9.784,-0.926,1.862,-8.48,0.87,-1.89,10.517,10.22,458,0
105.00,25.91,78.64,34.42,976.63,9.789,-0.938,1.879,-8.46,0.48,-2.24,10.421,15.63,456,0
106.00,25.76,78.37,33.60,976.65,9.795,-0.894,1.832,-8.51,1.29,-1.48,10.495,14.60,457,0
107.00,25.76,78.37,33.04,976.62,9.789,-0.937,1.884,-8.51,1.02,-1.78,11.809,18.37,458,0
108.00,25.79,78.42,33.01,976.62,9.789,-0.924,1.861,-8.49,0.44,-2.29,11.233,10.57,457,0
109.00,25.79,78.42,33.11,976.62,9.790,-0.909,1.845,-10.81,1.50,-1.85,10.372,20.73,459,0
110.00,25.83,78.49,33.15,976.62,9.785,-0.938,1.872,-8.47,0.94,-1.83,10.164,8.94,456,0
111.00,25.83,78.49,33.57,976.64,9.780,-0.934,1.866,-8.48,0.85,-1.89,10.980,9.28,456,0
112.00,25.78,78.40,33.72,976.64,9.782,-0.933,1.861,-8.47,0.88,-1.86,10.342,9.13,457,0
113.00,25.82,78.48,34.25,976.65,9.775,-0.942,1.876,-7.24,0.73,-1.63,11.007,9.85,458,0
114.00,25.82,78.48,34.07,976.65,9.783,-0.937,1.878,-7.77,0.66,-1.79,10.880,10.19,458,0
115.00,25.82,78.48,34.38,976.68,9.785,-0.939,1.866,-8.45,0.90,-1.85,10.711,9.13,457,0
116.00,25.81,78.46,34.57,976.67,9.785,-0.941,1.866,-8.46,0.84,-1.89,10.137,8.89,458,0
117.00,25.79,78.42,34.70,976.63,9.787,-0.937,1.859,-8.48,0.83,-1.86,10.101,8.93,455,0
118.00,25.77,78.39,34.93,976.63,9.784,-0.936,1.859,-8.49,0.86,-1.88,11.058,9.43,458,0
119.00,25.86,78.55,35.07,976.65,9.785,-0.950,1.845,-8.48,0.90,-1.90,10.723,11.57,457,0
120.00,25.88,78.58,34.94,976.67,9.785,-0.922,1.872,-9.47,0.84,-1.95,10.839,26.18,459,0
121.00,25.89,78.60,34.73,976.65,9.784,-0.934,1.852,-8.36,0.88,-1.79,10.751,10.09,456,0
122.00,25.89,78.60,34.16,976.65,9.781,-0.931,1.857,-6.08,0.52,-1.60,10.257,11.58,459,0
123.00,25.88,78.58,32.90,976.65,9.787,-0.927,1.856,-8.17,0.85,-1.82,10.410,9.89,455,0
124.00,25.89,78.60,32.73,976.65,9.812,-0.820,1.736,-3.40,0.54,-1.14,13.913,37.63,458,0
125.00,25.97,78.75,32.53,976.73,9.793,-0.899,1.840,-8.48,0.97,-1.92,10.420,10.79,458,0
126.00,26.21,79.18,32.53,976.65,9.789,-0.880,1.862,-11.78,0.78,-2.62,10.489,23.77,457,0
127.00,26.18,79.12,32.80,976.68,9.775,-0.783,1.896,-9.69,0.64,-2.19,13.247,28.79,459,0
128.00,26.18,79.12,32.73,976.67,9.808,-0.838,1.709,-8.45,0.31,-1.74,10.705,10.66,457,0
129.00,26.22,79.20,33.34,976.66,9.831,-0.803,1.703,-8.19,1.25,-2.43,11.859,11.22,457,0
130.00,26.28,79.30,33.73,976.68,9.823,-0.775,1.724,-8.47,0.95,-1.85,10.538,9.41,457,0
131.00,26.33,79.39,33.69,976.67,9.818,-0.734,1.741,-8.66,0.84,-2.11,11.086,14.87,458,0
132.00,26.38,79.48,33.58,976.69,9.835,-0.707,1.686,-8.18,-0.60,-3.75,11.433,14.92,458,0
133.00,26.41,79.54,33.56,976.67,9.848,-0.260,1.292,-14.06,-0.50,-3.65,13.228,92.48,458,0
134.00,26.46,79.63,32.79,976.66,9.846,-0.818,1.834,-8.93,2.41,-0.27,13.095,63.78,458,0
135.00,26.47,79.65,31.91,976.66,9.814,-0.733,1.705,-8.35,0.83,-1.74,11.089,23.96,456,0
136.00,26.49,79.68,31.30,976.69,9.828,-0.750,1.713,-8.45,1.15,-1.73,13.996,15.13,458,0
137.00,26.48,79.66,31.00,976.66,9.832,-0.775,1.620,-8.99,-0.35,-2.07,11.064,36.03,458,0
138.00,26.56,79.81,30.90,976.67,9.848,-0.666,1.573,-6.54,0.92,-2.24,12.989,16.44,458,0
139.00,26.65,79.97,31.11,976.69,9.846,-0.641,1.594,-8.47,0.99,-1.90,11.913,10.03,459,0
140.00,26.75,80.15,31.08,976.69,9.840,-0.652,1.627,-8.50,0.88,-1.91,10.320,9.33,449,0
141.00,26.83,80.29,30.99,976.69,9.843,-0.652,1.627,-8.52,1.05,-1.82,10.143,9.29,459,0
142.00,26.92,80.46,30.85,976.69,9.834,-0.664,1.697,-8.55,0.99,-1.70,10.211,10.20,457,0
143.00,26.98,80.56,30.84,976.67,9.829,-0.741,1.652,-8.50,0.80,-1.43,10.182,9.55,459,0
144.00,27.02,80.64,30.69,976.70,9.836,-0.716,1.658,-8.37,0.69,-2.59,10.477,9.61,457,0
145.00,27.09,80.76,30.75,976.70,9.838,-0.658,1.685,-8.55,1.40,-1.75,10.379,9.37,458,0
146.00,27.15,80.87,30.62,976.69,9.824,-0.648,1.758,-8.50,0.98,-2.01,10.291,9.91,457,0
147.00,27.19,80.94,30.33,976.68,9.822,-0.639,1.772,-8.51,0.71,-1.97,10.304,10.34,457,0
148.00,27.22,81.00,30.04,976.67,9.930,-0.843,1.949,-46.05,8.38,5.19,12.811,133.32,458,0
149.00,27.24,81.03,29.96,976.63,9.753,-1.205,2.285,-44.81,5.88,-13.59,10.691,106.79,458,0
150.00,27.23,81.01,29.73,976.64,9.623,-1.248,2.152,-61.37,22.03,-14.02,12.288,114.96,457,0
151.00,27.26,81.07,29.63,976.62,9.886,-1.108,1.872,31.26,-7.70,-2.37,11.656,100.72,458,0
152.00,27.24,81.03,29.77,976.62,9.881,-0.759,1.837,-14.62,2.14,-4.53,11.384,98.44,456,0
153.00,27.23,81.01,29.56,976.63,9.702,-0.615,1.803,-14.20,-1.06,-8.85,11.632,86.38,457,0
154.00,27.23,81.01,29.53,976.61,10.186,-0.641,1.822,14.33,0.05,5.87,12.569,82.39,459,0
155.00,27.23,81.01,29.50,976.65,9.557,-0.790,1.569,13.42,-0.58,0.21,11.806,62.30,457,0
156.00,27.24,81.03,29.63,976.67,9.884,-0.588,1.643,42.81,-4.29,8.85,12.456,119.03,458,0
157.00,27.27,81.09,29.44,976.65,9.707,-0.870,1.842,44.68,-4.63,5.44,11.936,140.90,458,0
158.00,27.28,81.10,29.74,976.69,9.113,-0.419,1.473,48.37,-9.59,5.32,10.998,95.59,456,0
159.00,27.28,81.10,29.36,976.72,10.846,-0.407,1.418,10.41,5.54,-5.11,17.973,107.58,458,0
160.00,27.34,81.21,29.77,976.71,9.915,-0.055,1.267,-8.44,1.09,-1.59,10.845,12.34,457,0
161.00,27.37,81.27,30.04,976.70,9.904,-0.069,1.301,-8.11,1.59,-2.74,10.777,16.60,458,0
162.00,27.41,81.34,30.23,976.72,9.891,0.163,1.468,-7.67,1.46,-2.80,10.388,15.96,459,0
163.00,27.45,81.41,30.32,976.72,9.885,0.110,1.509,-8.59,0.58,-0.53,11.105,24.75,458,0
164.00,27.48,81.46,30.28,976.73,9.890,-0.008,1.470,-8.54,0.72,-1.73,10.601,10.80,456,0
165.00,27.50,81.50,30.32,976.72,9.902,0.001,1.451,-8.39,0.76,-2.27,10.976,9.27,456,0
166.00,27.50,81.50,30.37,976.75,9.889,-0.030,1.429,-8.84,0.69,-0.29,12.062,26.27,459,0
167.00,27.52,81.54,30.49,976.72,9.879,-0.552,1.428,-8.76,1.05,0.42,10.715,17.32,458,0
168.00,27.52,81.54,30.20,976.72,9.869,-0.643,1.451,-8.44,0.94,-1.95,10.329,9.44,458,0
169.00,27.51,81.52,29.85,976.71,9.864,-0.631,1.469,-8.37,1.19,-1.57,11.365,16.83,456,0
170.00,27.54,81.57,29.82,976.68,9.843,-0.564,1.572,-8.26,0.51,-1.10,11.020,39.82,458,0
171.00,27.57,81.63,29.71,976.74,9.896,-0.765,1.100,-8.56,-1.27,-1.47,11.091,18.18,458,0
172.00,27.57,81.63,30.21,976.70,9.911,-0.760,0.835,-8.18,-0.70,-3.43,10.922,16.68,458,0
173.00,27.58,81.64,30.99,976.73,9.930,-0.421,0.962,-8.15,1.86,-2.86,10.924,15.19,459,0
174.00,27.60,81.68,31.12,976.76,9.950,-0.503,0.845,-8.17,0.58,-1.97,12.537,21.60,458,0
175.00,27.61,81.70,31.04,976.73,9.939,-0.516,0.827,-8.56,0.51,-0.85,10.649,11.49,456,0
176.00,27.63,81.73,31.35,976.72,9.943,-0.574,0.729,-8.38,0.27,-2.15,10.246,11.76,458,0
177.00,27.65,81.77,31.67,976.72,9.949,-0.544,0.668,-7.71,1.70,-1.89,10.391,11.00,459,0
178.00,27.67,81.81,31.84,976.73,9.944,-0.608,0.741,-6.59,0.10,-1.41,11.142,11.57,459,0
179.00,27.68,81.82,31.36,976.73,9.914,-0.707,0.946,0.44,1.48,-0.38,47.927,41.70,458,0
180.00,27.71,81.88,31.06,976.74,9.906,-0.798,0.712,-8.13,1.06,-3.31,38.513,41.56,459,0
181.00,27.72,81.90,31.20,976.75,9.861,0.136,1.268,-8.70,-2.08,-7.14,12.115,55.61,455,0
182.00,27.74,81.93,30.98,976.76,9.853,0.520,1.504,-7.70,4.36,-1.92,11.350,53.03,458,0
183.00,27.74,81.93,31.41,976.73,9.875,0.428,1.278,-9.38,-2.33,-1.00,20.121,40.66,458,0
184.00,27.75,81.95,31.70,976.77,9.919,0.403,0.909,-8.69,-0.10,-2.32,13.311,62.75,458,0
185.00,27.77,81.99,31.71,976.75,9.916,0.534,0.903,-8.45,0.22,-1.60,13.996,57.35,458,0
186.00,27.79,82.02,31.37,976.73,9.937,0.552,0.809,-8.53,0.14,-2.13,17.071,26.37,459,0
187.00,27.80,82.04,31.49,976.77,9.973,0.485,0.744,-8.46,0.66,-1.35,12.737,13.02,451,0
188.00,27.82,82.08,31.77,976.73,9.970,0.293,0.424,-8.37,-0.53,-0.97,11.409,12.72,458,0
189.00,27.85,82.13,34.59,976.74,9.972,0.268,0.423,-8.35,2.01,-2.30,11.913,13.80,459,0
190.00,27.86,82.15,35.50,976.76,9.952,0.318,0.452,-8.50,0.32,-1.48,10.860,13.12,459,0
191.00,27.84,82.11,34.48,976.79,9.965,0.316,0.450,-9.35,0.19,-2.99,11.658,27.62,458,0
192.00,27.85,82.13,34.06,976.77,9.957,0.362,0.500,-8.22,3.55,-0.19,11.213,21.08,459,0
193.00,27.87,82.17,33.47,976.79,9.950,0.134,0.888,-8.45,1.29,-1.57,11.444,12.37,455,0
194.00,27.88,82.18,33.44,976.75,9.948,0.055,0.963,-8.55,1.46,-1.40,10.224,9.38,458,0
195.00,27.91,82.24,33.18,976.74,9.929,-0.074,1.117,-8.18,1.54,-0.96,11.234,11.15,458,0
196.00,27.90,82.22,32.26,976.71,9.930,-0.095,1.125,-8.60,0.70,-2.12,10.080,9.29,458,0
197.00,27.92,82.26,31.90,976.71,9.928,-0.077,1.117,-8.50,0.89,-1.85,10.068,8.90,457,0
198.00,27.92,82.26,31.29,976.73,9.928,-0.083,1.122,-8.49,0.87,-1.84,10.054,8.89,458,0
199.00,27.87,82.17,30.65,976.74,9.931,-0.090,1.129,-8.51,0.90,-1.84,10.052,8.90,455,0
200.00,27.86,82.15,30.38,976.71,9.928,-0.093,1.131,-8.50,0.86,-1.88,10.051,8.88,457,0
201.00,27.90,82.22,29.95,976.74,9.923,-0.108,1.145,-8.54,0.69,-1.72,10.858,10.24,458,0
202.00,27.94,82.29,29.57,976.74,9.924,-0.097,1.109,-8.42,1.04,-1.93,11.095,10.36,458,0
203.00,27.96,82.33,29.23,976.74,9.927,-0.113,1.149,-8.50,1.04,-1.90,10.111,9.13,458,0
204.00,27.96,82.33,29.88,976.76,9.921,-0.103,1.177,-8.62,0.99,-1.38,10.174,10.57,455,0
205.00,27.97,82.35,30.52,976.75,9.909,-0.060,1.058,-8.78,2.16,-2.78,21.533,58.13,458,0
206.00,27.99,82.38,31.03,976.77,9.882,-0.263,1.367,-8.78,-0.39,-1.29,13.241,27.59,458,0
207.00,27.98,82.36,31.63,976.75,9.890,-0.520,1.370,-8.58,0.83,-0.11,14.534,25.03,458,0
208.00,28.00,82.40,31.79,976.76,9.931,-0.593,1.070,-9.03,-0.16,-2.52,15.899,31.98,458,0
209.00,28.00,82.40,32.09,976.79,9.908,-0.419,1.138,-8.46,0.50,-2.86,13.352,36.83,459,0
210.00,28.01,82.42,32.08,976.79,9.919,-0.379,0.966,-9.46,1.27,-1.70,14.655,37.04,456,0
211.00,28.02,82.44,31.94,976.75,9.919,-0.373,1.092,-8.23,1.41,-2.43,11.528,33.21,458,0
212.00,28.04,82.47,31.41,976.78,9.924,-0.314,1.111,-8.50,0.79,-2.01,10.188,8.92,459,0
213.00,28.05,82.49,31.14,976.78,9.923,-0.308,1.109,-8.48,0.87,-2.02,10.360,9.28,457,0
214.00,28.06,82.51,31.18,976.77,9.918,-0.302,1.135,-8.58,0.95,-1.72,10.525,10.75,459,0
215.00,28.09,82.56,30.62,976.79,9.919,-0.317,1.126,-8.46,0.79,-1.88,10.160,9.18,457,0
216.00,28.11,82.60,30.62,976.81,9.921,-0.327,1.121,-8.47,0.84,-1.72,11.208,10.78,456,0
217.00,28.13,82.63,30.12,976.78,9.934,-0.336,1.118,-8.55,0.87,-1.09,10.380,16.69,458,0
218.00,28.12,82.62,30.27,976.77,9.934,-0.550,1.012,-8.80,0.38,-1.51,11.983,19.19,458,0
219.00,28.13,82.63,30.24,976.78,9.893,-0.400,1.244,-9.22,2.15,-1.97,11.205,27.10,459,0
220.00,28.15,82.67,30.21,976.76,9.901,-0.490,1.194,-8.94,-0.93,-2.43,11.572,17.55,458,0
221.00,28.16,82.69,30.78,976.75,9.917,-0.524,1.011,-8.88,1.12,-0.36,14.429,26.60,458,0
222.00,28.17,82.71,31.16,976.74,9.867,-0.470,1.354,-9.38,3.55,-3.92,18.256,45.75,455,0
223.00,28.20,82.76,31.49,976.71,9.890,-0.282,1.347,-8.09,-1.64,-1.26,12.055,32.78,459,0
224.00,28.21,82.78,31.59,976.71,9.983,-0.424,1.087,-8.59,0.23,-1.43,15.375,49.05,458,0
225.00,28.22,82.80,31.59,976.71,9.917,-0.433,1.115,-8.52,0.79,-1.91,10.058,8.93,459,0
226.00,28.23,82.81,31.66,976.72,9.915,-0.429,1.109,-8.52,0.82,-1.82,10.085,8.91,457,0
227.00,28.23,82.81,31.55,976.74,9.911,-0.455,1.102,-8.55,1.00,-1.68,10.226,9.79,459,0
228.00,28.24,82.83,31.16,976.74,9.907,-0.487,1.142,-8.48,0.85,-1.93,10.353,9.79,456,0
229.00,28.25,82.85,31.10,976.75,9.909,-0.469,1.168,-8.42,1.43,-2.16,10.414,11.32,458,0
230.00,28.22,82.80,30.76,976.71,9.897,-0.415,1.278,-8.37,1.28,-1.90,10.391,9.76,458,0
231.00,28.18,82.72,30.40,976.72,9.895,-0.425,1.275,-8.57,0.70,-1.75,10.135,9.13,458,0
232.00,28.20,82.76,30.27,976.73,9.898,-0.443,1.226,-8.52,0.45,-1.95,10.721,26.29,459,0
233.00,28.17,82.71,29.97,976.72,9.904,-0.437,1.140,-8.53,0.41,-1.54,10.820,10.10,457,0
234.00,28.18,82.72,29.58,976.75,9.901,-0.385,1.380,-8.36,2.06,-2.56,10.892,20.87,451,0
235.00,28.18,82.72,29.70,976.74,9.896,-0.356,1.327,-8.53,-0.72,-1.56,10.516,17.87,459,0
236.00,28.21,82.78,29.66,976.74,9.917,-0.448,1.137,-8.43,0.53,-2.06,10.764,15.86,457,0
237.00,28.23,82.81,30.26,976.71,9.918,-0.364,1.149,-8.21,1.53,-2.37,14.098,44.41,459,0
238.00,28.24,82.83,30.07,976.72,9.912,-0.416,1.128,-8.57,1.08,-0.98,11.380,23.39,457,0
239.00,28.26,82.87,29.75,976.72,9.885,-0.510,1.286,-7.62,0.29,-1.98,12.767,44.22,457,0
240.00,28.26,82.87,30.31,976.73,9.908,-0.437,1.187,-8.47,0.91,-1.98,10.049,8.92,458,0
241.00,28.22,82.80,30.65,976.75,9.906,-0.347,1.204,-8.38,0.30,-3.49,11.847,14.71,458,0
242.00,28.18,82.72,30.66,976.71,9.912,-0.367,1.125,-8.32,2.26,-1.11,12.314,19.11,458,0
243.00,28.17,82.71,30.75,976.75,9.878,-0.366,1.461,-8.70,1.56,0.27,11.687,28.26,458,0
244.00,28.21,82.78,31.21,976.75,9.861,-0.681,1.534,-8.13,0.11,-1.02,23.475,63.70,459,0
245.00,28.23,82.81,31.24,976.71,9.861,-0.528,1.556,-8.39,0.51,-2.92,14.243,25.29,455,0
246.00,28.21,82.78,31.26,976.75,9.852,-0.456,1.335,-8.45,0.05,-1.96,24.338,36.98,459,0
247.00,28.23,82.81,30.81,976.74,9.881,-0.549,1.200,-8.44,1.04,-3.34,11.568,27.56,458,0
248.00,28.23,82.81,30.35,976.73,9.909,-0.281,0.894,-8.68,0.52,-1.75,11.674,47.52,458,0
249.00,28.23,82.81,30.08,976.72,9.911,-0.403,1.085,-8.51,0.57,-1.70,10.127,9.54,458,0
250.00,28.24,82.83,30.03,976.71,9.915,-0.422,1.112,-8.49,0.89,-1.78,10.088,9.57,459,0
251.00,28.26,82.87,30.10,976.75,9.914,-0.432,1.134,-8.48,1.15,-1.81,11.383,9.80,456,0
252.00,28.25,82.85,29.94,976.73,9.913,-0.450,1.147,-8.50,0.89,-1.82,10.142,8.93,458,0
253.00,28.25,82.85,30.28,976.71,9.905,-0.497,1.189,-8.47,1.03,-1.65,10.432,11.67,458,0
254.00,28.27,82.89,30.59,976.72,9.913,-0.382,1.108,-8.52,0.01,-2.39,12.524,17.64,458,0
255.00,28.29,82.92,30.92,976.73,9.923,-0.396,0.920,-6.80,-0.08,-2.61,14.906,21.85,458,0
256.00,28.30,82.94,30.94,976.74,9.951,-0.380,0.868,-8.83,0.49,-1.62,14.805,25.71,458,0
257.00,28.30,82.94,31.37,976.75,9.936,-0.112,0.674,-9.48,-0.27,-2.70,15.427,31.31,457,0
258.00,28.30,82.94,31.56,976.71,9.948,-0.233,0.775,-7.88,0.65,-2.18,13.521,44.44,458,0
259.00,28.32,82.98,31.45,976.72,9.947,0.013,0.760,-8.80,3.45,-1.07,11.362,22.61,458,0
260.00,28.33,82.99,31.51,976.74,9.924,-0.296,1.071,-8.66,1.32,-1.08,10.157,10.84,458,0
261.00,28.33,82.99,31.56,976.70,9.909,-0.461,1.158,-8.62,0.51,-1.66,11.148,25.30,458,0
262.00,28.33,82.99,31.74,976.71,9.920,-0.166,1.191,-8.44,2.20,-4.03,10.843,18.36,458,0
263.00,28.34,83.01,31.54,976.72,9.921,-0.132,1.190,-13.31,-1.33,-2.92,10.744,34.16,456,0
264.00,28.36,83.05,31.63,976.74,9.916,-0.045,1.274,-8.55,3.46,-2.30,10.979,43.59,459,0
265.00,28.38,83.08,31.66,976.74,9.902,-0.244,1.264,-8.52,0.10,-0.03,11.265,46.70,458,0
266.00,28.38,83.08,31.46,976.75,9.910,-0.305,1.247,-8.54,0.84,-1.47,10.583,10.14,458,0
267.00,28.38,83.08,31.60,976.72,9.876,-0.261,1.307,-8.12,2.13,-3.22,12.663,58.93,458,0
268.00,28.38,83.08,31.46,976.72,9.899,-0.587,0.989,-8.68,0.01,0.03,10.921,46.29,458,0
269.00,28.40,83.12,31.38,976.76,9.929,-0.222,0.989,-8.43,0.37,-4.30,11.193,21.66,456,0
270.00,28.39,83.10,31.43,976.73,9.925,-0.140,1.008,-8.53,1.10,-1.41,14.302,40.09,459,0
271.00,28.41,83.14,31.43,976.72,9.904,-0.292,1.078,-7.20,3.56,-1.91,11.281,43.91,457,0
272.00,28.42,83.16,31.17,976.74,9.880,-0.262,1.397,-4.70,1.06,-1.57,11.266,19.86,459,0
273.00,28.41,83.14,31.06,976.74,9.864,0.023,1.587,-7.31,2.26,-4.50,10.816,20.45,458,0
274.00,28.43,83.17,30.87,976.74,9.763,0.879,1.735,-5.61,-1.28,-3.29,28.301,56.15,456,0
275.00,28.43,83.17,31.28,976.71,9.882,0.288,1.383,-9.94,2.03,-0.82,47.623,83.89,458,0
276.00,28.45,83.21,31.30,976.76,9.880,0.342,1.343,-8.71,-1.54,0.20,12.860,38.08,458,0
277.00,28.45,83.21,31.01,976.73,9.903,-0.260,1.076,-8.69,0.46,-1.22,14.775,45.00,458,0
278.00,28.47,83.25,31.10,976.72,9.906,-0.195,1.145,-8.55,1.14,-2.36,13.123,37.45,459,0
279.00,28.48,83.26,31.11,976.72,9.906,-0.158,1.243,-8.47,1.01,-1.90,10.164,9.23,457,0
280.00,28.47,83.25,31.00,976.74,9.907,-0.174,1.258,-8.52,0.89,-1.89,10.056,9.05,449,0
281.00,28.45,83.21,30.23,976.71,9.894,-0.114,1.350,-8.63,1.47,-2.38,10.380,10.61,458,0
282.00,28.48,83.26,29.95,976.73,9.890,-0.092,1.366,-8.50,1.13,-1.98,10.125,11.17,459,0
283.00,28.48,83.26,29.97,976.74,9.884,-0.045,1.423,-8.38,0.52,-1.83,11.386,26.34,457,0
284.00,28.49,83.28,29.94,976.73,9.891,-0.051,1.363,-8.40,1.06,-2.29,10.457,12.58,459,0
285.00,28.49,83.28,29.93,976.75,9.870,-0.133,1.546,-9.83,-0.14,-0.35,13.720,33.11,457,0
286.00,28.48,83.26,29.58,976.74,9.913,-0.230,1.212,-11.48,0.97,-2.90,10.841,27.91,456,0
287.00,28.49,83.28,29.62,976.76,9.917,-0.180,1.147,-12.71,1.24,-3.28,15.231,57.46,459,0
288.00,28.51,83.32,30.55,976.71,9.903,-0.174,0.745,-6.61,-0.45,-1.14,18.627,38.31,457,0
289.00,28.52,83.34,31.02,976.72,9.939,-0.297,0.653,-9.08,-0.16,0.68,16.688,34.34,459,0
290.00,28.53,83.35,30.84,976.70,9.924,-0.395,0.886,-8.54,2.55,-3.83,19.687,46.21,458,0
291.00,28.53,83.35,30.55,976.71,9.931,-0.261,1.051,-8.51,1.11,-1.85,10.192,9.05,458,0
292.00,28.54,83.37,30.43,976.73,9.933,-0.085,1.179,-56.65,1.87,-11.29,10.930,169.16,455,0
293.00,28.53,83.35,31.06,976.75,9.786,0.459,1.971,-31.73,4.01,-6.52,10.804,151.46,459,0
294.00,28.54,83.37,32.65,976.72,9.756,0.477,2.136,-8.08,1.07,-2.29,10.557,15.55,459,0
295.00,28.55,83.39,32.15,976.74,9.607,0.593,2.733,-7.29,0.95,-2.06,12.117,47.75,458,0
296.00,28.54,83.37,31.25,976.72,9.805,0.313,1.907,-10.17,1.66,-0.40,14.246,31.55,458,0
297.00,28.56,83.41,31.12,976.71,9.733,0.629,2.164,-6.73,-1.06,-6.54,14.415,26.30,458,0
298.00,28.59,83.46,32.08,976.74,9.826,0.491,1.852,-9.03,-0.64,1.98,12.269,31.73,456,0
299.00,28.60,83.48,33.16,976.75,9.849,0.443,1.598,-8.25,-1.27,-3.19,12.278,21.62,458,0
300.00,28.61,83.50,33.63,976.74,9.925,0.548,0.735,-7.79,-7.69,-0.92,13.286,32.25,459,0
301.00,28.60,83.48,33.50,976.74,9.979,0.405,0.455,-8.67,5.83,-0.96,11.115,30.46,458,0
302.00,28.59,83.46,32.69,976.75,9.941,0.280,0.839,-8.51,1.29,-1.54,11.455,14.92,458,0
303.00,28.60,83.48,32.32,976.71,9.940,0.265,0.897,-8.49,1.02,-1.88,10.045,8.93,459,0
304.00,28.64,83.55,31.92,976.73,9.936,0.268,0.908,-8.48,0.87,-1.88,10.037,8.86,456,0
305.00,28.66,83.59,31.18,976.73,9.937,0.274,0.910,-8.51,0.84,-1.89,10.039,8.88,457,0
306.00,28.65,83.57,31.17,976.73,9.942,0.276,0.913,-8.48,0.88,-1.88,10.186,8.93,459,0
307.00,28.66,83.59,31.09,976.74,9.940,0.281,0.913,-8.51,0.83,-1.92,10.274,9.22,457,0
308.00,28.66,83.59,31.21,976.72,9.935,0.278,0.917,-8.51,0.90,-1.76,10.211,9.18,459,0
309.00,28.71,83.68,31.13,976.73,9.940,0.250,0.927,-8.51,0.92,-1.73,10.055,8.88,455,0
310.00,28.73,83.71,31.39,976.76,9.940,0.221,0.926,-8.53,0.83,-1.79,10.054,8.93,458,0
311.00,28.77,83.79,31.61,976.72,9.949,0.263,0.939,-8.33,1.89,-4.90,10.418,20.33,458,0
312.00,28.78,83.80,31.91,976.73,9.832,0.899,1.292,-9.00,3.24,0.95,13.769,51.54,458,0
313.00,28.80,83.84,32.88,976.72,9.882,0.303,1.563,-8.50,0.79,-1.56,12.725,12.39,458,0
314.00,28.83,83.89,33.94,976.71,9.875,0.249,1.577,-8.31,1.09,-1.19,15.641,14.38,459,0
315.00,28.84,83.91,33.26,976.75,9.854,0.233,1.611,-6.77,1.54,-1.55,15.785,21.03,457,0
316.00,28.85,83.93,32.08,976.74,9.882,0.338,1.514,-8.39,-0.37,-3.26,14.145,18.82,458,0
317.00,28.81,83.86,30.83,976.73,9.922,0.152,1.134,-9.64,-5.80,10.72,11.896,57.12,458,0
318.00,28.87,83.97,30.23,976.72,9.680,-2.261,0.527,-9.23,2.05,-5.22,11.687,39.00,457,0
319.00,28.88,83.98,30.39,976.72,9.623,0.146,-1.337,-9.21,0.43,-9.05,11.691,122.25,459,0
320.00,28.84,83.91,30.40,976.71,9.959,0.158,0.019,-8.52,-0.28,-2.08,12.215,28.19,458,0
321.00,28.87,83.97,30.16,976.73,9.971,0.148,0.487,-8.42,3.15,-1.85,10.359,15.45,457,0
322.00,28.90,84.02,29.80,976.71,9.965,0.146,0.591,-8.51,1.97,-1.78,11.489,18.04,459,0
323.00,28.94,84.09,29.65,976.72,9.954,0.085,0.770,-8.62,1.56,-1.45,10.878,15.69,457,0
324.00,28.97,84.15,29.59,976.75,9.930,0.047,0.928,-8.47,1.36,-1.79,11.480,15.18,458,0
325.00,28.99,84.18,29.23,976.74,9.934,0.036,0.956,-8.52,0.95,-1.83,10.120,9.87,458,0
326.00,29.03,84.25,30.34,976.74,9.936,0.236,0.904,-8.25,0.05,-3.75,10.736,16.64,458,0
327.00,29.04,84.27,32.27,976.76,9.948,0.352,0.709,-8.34,0.70,-1.80,11.451,13.58,451,0
328.00,29.09,84.36,34.26,976.76,9.934,0.383,0.772,-8.43,-0.35,-1.91,11.960,12.06,458,0
329.00,29.14,84.45,38.06,976.75,9.966,0.369,0.486,-8.31,-0.37,-1.96,12.208,16.54,459,0
330.00,29.12,84.42,39.30,976.76,9.927,0.439,0.621,-9.21,2.72,-2.08,13.006,21.02,458,0
331.00,29.12,84.42,37.34,976.73,9.949,0.403,0.784,-8.24,1.46,-1.34,14.985,24.47,459,0
332.00,29.02,84.24,35.75,976.72,9.927,0.403,0.987,-9.96,2.38,-1.29,12.127,31.77,458,0
333.00,29.04,84.27,32.76,976.72,9.924,0.261,1.036,-8.29,0.32,-2.29,10.663,11.27,456,0
334.00,29.05,84.29,30.79,976.72,9.922,0.239,1.016,-8.54,0.74,-1.70,10.435,9.51,458,0
335.00,29.11,84.40,30.03,976.73,9.931,0.242,1.003,-8.49,0.87,-1.83,10.320,9.22,458,0
336.00,29.14,84.45,29.62,976.76,9.940,0.236,1.001,-8.53,0.82,-1.56,10.527,9.32,458,0
337.00,29.12,84.42,30.43,976.79,9.932,0.163,0.996,-8.44,0.95,-2.07,10.357,10.59,458,0
338.00,29.13,84.43,30.84,976.77,9.931,0.206,1.000,-8.46,0.83,-1.89,10.519,9.98,459,0
339.00,29.14,84.45,30.83,976.77,9.930,0.204,1.007,-8.49,0.83,-1.85,10.098,8.87,455,0
340.00,29.16,84.49,30.60,976.79,9.930,0.196,1.000,-8.50,0.81,-1.78,10.263,8.88,459,0
341.00,29.18,84.52,30.51,976.74,9.928,0.216,0.975,-8.46,0.60,-2.22,10.957,18.15,457,0
342.00,29.21,84.58,30.55,976.78,9.935,0.212,0.978,-8.50,0.94,-1.72,10.165,9.37,459,0
343.00,29.21,84.58,30.33,976.76,9.932,0.201,1.002,-8.55,1.05,-1.56,10.836,9.84,457,0
344.00,29.24,84.63,30.48,976.76,9.928,0.157,1.014,-8.45,0.78,-1.97,10.149,9.08,459,0
345.00,29.25,84.65,30.51,976.75,9.932,0.184,1.004,-8.50,0.90,-1.82,10.569,11.11,455,0
346.00,29.27,84.69,30.78,976.74,9.929,0.178,1.017,-8.48,1.01,-1.84,10.248,9.03,458,0
347.00,29.32,84.78,30.66,976.77,9.927,0.175,1.035,-8.49,0.85,-1.95,10.465,9.13,458,0
348.00,29.36,84.85,30.39,976.77,9.926,0.191,1.044,-8.47,0.71,-1.85,10.213,9.28,458,0
349.00,29.38,84.88,29.98,976.77,9.928,0.202,1.048,-8.45,0.92,-1.90,10.268,9.33,458,0
350.00,29.41,84.94,30.44,976.78,9.919,0.175,1.081,-8.41,1.02,-1.86,10.335,9.04,458,0
351.00,29.44,84.99,30.69,976.77,9.915,0.170,0.998,-8.52,1.14,-1.61,11.194,36.24,456,0
352.00,29.46,85.03,30.54,976.76,9.903,0.177,1.040,-8.52,-0.20,-1.74,10.753,23.33,458,0
353.00,29.40,84.92,29.58,976.75,9.920,0.184,1.046,-8.47,0.80,-1.95,10.525,9.56,459,0
354.00,29.36,84.85,29.32,976.78,9.923,0.186,1.039,-8.56,1.05,-1.73,10.152,9.17,457,0
355.00,29.41,84.94,29.23,976.80,9.923,0.172,1.065,-8.45,0.75,-2.04,10.042,9.03,458,0
356.00,29.45,85.01,29.40,976.76,9.925,0.198,1.052,-8.49,0.84,-1.79,10.079,8.87,458,0
357.00,29.46,85.03,29.38,976.79,9.925,0.175,1.048,-8.48,0.79,-1.86,10.091,9.30,456,0
358.00,29.47,85.05,28.87,976.80,9.926,0.177,1.052,-8.48,0.84,-1.82,10.059,9.06,458,0
359.00,29.44,84.99,28.59,976.79,9.928,0.185,1.049,-8.47,0.86,-1.95,10.070,9.14,457,0
360.00,29.49,85.08,28.36,976.82,9.928,0.189,1.054,-8.49,0.86,-1.86,10.100,8.91,459,0
361.00,29.53,85.15,28.29,976.77,9.927,0.188,1.056,-8.47,0.84,-1.87,10.160,8.84,457,0
362.00,29.53,85.15,28.00,976.75,9.927,0.188,1.055,-8.48,0.85,-1.88,10.313,8.87,458,0
363.00,29.54,85.17,27.60,976.80,9.931,0.114,1.046,-8.67,0.80,-1.03,11.393,20.07,456,0
364.00,29.56,85.21,27.83,976.78,9.928,0.032,1.037,-8.64,0.64,-1.84,11.646,12.65,458,0
365.00,29.54,85.17,27.47,976.77,9.927,0.039,1.007,-8.50,0.83,-1.85,10.252,9.44,457,0
366.00,29.57,85.23,26.94,976.76,9.931,0.022,1.017,-8.47,0.94,-1.87,10.135,9.47,458,0
367.00,29.57,85.23,26.92,976.78,9.918,0.085,1.085,-8.60,2.03,-2.03,11.422,33.69,458,0
368.00,29.60,85.28,26.74,976.74,9.921,0.109,1.161,-8.51,-0.13,-1.64,11.304,11.92,459,0
369.00,29.68,85.42,26.70,976.75,9.916,-0.030,1.043,-8.65,0.75,-1.52,10.877,14.25,456,0
370.00,29.66,85.39,26.57,976.74,9.928,-0.064,1.010,-8.44,0.75,-2.06,10.352,13.46,458,0
371.00,29.67,85.41,26.67,976.74,9.929,-0.039,1.022,-8.47,0.83,-1.96,10.273,9.78,457,0
372.00,29.72,85.50,27.14,976.75,9.932,-0.024,1.023,-8.49,0.83,-1.89,10.383,14.98,458,0
373.00,29.76,85.57,27.28,976.77,9.929,-0.042,1.027,-8.50,0.81,-1.79,10.471,9.58,458,0
374.00,29.81,85.66,26.87,976.76,9.928,-0.041,1.020,-8.49,0.73,-1.82,10.101,9.05,450,0
375.00,29.83,85.69,26.74,976.74,9.926,-0.042,1.014,-8.47,0.92,-1.91,10.167,10.11,456,0
376.00,29.83,85.69,27.19,976.76,9.929,-0.060,1.018,-8.48,0.78,-1.80,10.156,9.53,459,0
377.00,29.88,85.78,27.21,976.77,9.935,-0.050,1.002,-8.49,0.96,-1.91,10.297,10.60,457,0
378.00,29.91,85.84,27.94,976.77,9.929,-0.057,1.000,-8.48,0.84,-1.83,10.204,9.61,458,0
379.00,29.92,85.86,29.36,976.75,9.927,-0.076,1.023,-8.49,0.73,-1.82,10.172,9.23,458,0
380.00,29.96,85.93,29.42,976.75,9.927,-0.032,0.989,-8.24,0.98,-2.39,10.338,9.70,455,0
381.00,30.00,86.00,29.92,976.79,9.921,-0.007,1.025,-8.49,0.80,-1.65,10.320,10.43,458,0
382.00,29.98,85.96,29.58,976.80,9.927,-0.016,1.045,-8.48,0.80,-1.92,10.184,10.11,458,0
383.00,29.96,85.93,29.33,976.75,9.924,-0.013,1.040,-8.48,0.75,-1.85,10.179,8.95,457,0
384.00,29.99,85.98,29.44,976.79,9.928,-0.012,1.035,-8.48,0.94,-1.87,10.076,9.07,458,0
385.00,30.02,86.04,29.38,976.77,9.920,-0.019,1.031,-8.49,0.75,-1.83,10.141,9.09,458,0
386.00,30.06,86.11,29.60,976.78,9.921,-0.019,1.033,-8.48,0.84,-1.89,10.211,9.00,455,0
387.00,30.10,86.18,29.56,976.77,9.925,-0.015,1.064,-8.49,0.94,-1.84,10.145,9.78,458,0
388.00,30.14,86.25,29.32,976.76,9.925,-0.020,1.051,-8.49,0.73,-1.87,10.169,12.36,457,0
389.00,30.18,86.32,29.05,976.75,9.924,-0.023,1.046,-8.48,0.97,-1.87,10.229,9.18,458,0
390.00,30.20,86.36,28.83,976.74,9.926,-0.024,1.057,-8.47,0.94,-1.93,10.134,9.39,457,0
391.00,30.22,86.40,28.82,976.79,9.916,-0.040,1.055,-8.45,0.65,-1.96,10.351,10.84,458,0
392.00,30.21,86.38,28.37,976.77,9.919,0.014,1.053,-8.47,0.87,-2.02,10.435,13.65,457,0
393.00,30.21,86.38,28.17,976.77,9.930,-0.016,1.038,-8.50,0.70,-1.80,10.215,10.82,457,0
394.00,30.24,86.43,27.97,976.78,9.925,0.039,1.040,-8.51,0.87,-1.78,10.340,13.12,459,0
395.00,30.25,86.45,28.24,976.78,9.923,0.018,1.039,-8.50,0.86,-1.90,10.275,9.78,458,0
396.00,30.28,86.50,28.41,976.73,9.921,0.008,1.041,-8.50,0.82,-1.84,10.140,9.51,455,0
397.00,30.31,86.56,28.09,976.76,9.930,0.024,1.074,-8.65,0.79,-1.71,10.907,25.52,458,0
398.00,30.35,86.63,27.62,976.77,9.932,0.026,1.053,-8.47,0.96,-2.07,10.259,14.55,457,0
399.00,30.35,86.63,27.30,976.77,9.923,0.041,1.015,-8.46,0.85,-1.92,10.292,9.68,457,0
400.00,30.37,86.67,26.70,976.76,9.926,0.028,1.023,-8.48,0.82,-1.86,10.178,9.82,458,0
401.00,30.39,86.70,26.60,976.77,9.926,0.018,1.032,-8.49,0.87,-1.82,10.073,8.93,457,0
402.00,30.41,86.74,26.41,976.77,9.923,0.004,1.045,-8.50,0.88,-1.81,10.346,11.87,459,0
403.00,30.42,86.76,26.33,976.77,9.926,0.045,1.037,-8.47,0.79,-1.93,10.223,11.48,457,0
404.00,30.44,86.79,26.14,976.76,9.926,0.032,1.039,-8.48,0.89,-1.85,10.072,9.30,456,0
405.00,30.46,86.83,25.91,976.76,9.923,0.026,1.034,-8.49,0.82,-1.87,10.051,8.87,457,0
406.00,30.46,86.83,25.87,976.78,9.925,0.014,1.033,-8.48,0.88,-1.80,10.070,8.90,458,0
407.00,30.49,86.88,25.76,976.75,9.926,0.008,1.022,-8.49,0.78,-1.84,10.129,9.29,458,0
408.00,30.51,86.92,25.71,976.75,9.924,0.013,1.024,-8.51,0.95,-1.85,10.180,9.26,457,0
409.00,30.58,87.04,25.99,976.76,9.936,0.015,1.016,-8.51,-0.37,-1.52,10.183,10.63,457,0
410.00,30.64,87.15,25.87,976.82,9.926,-0.840,-1.026,-8.01,-15.70,9.97,10.674,57.45,456,0
411.00,30.84,87.51,25.64,976.71,9.601,-1.552,-0.884,0.46,12.89,-6.09,10.264,110.82,458,0
412.00,30.80,87.44,25.68,976.77,9.923,-1.028,-0.368,-14.51,-1.33,-8.02,10.809,91.96,457,0
413.00,30.79,87.42,25.94,976.73,9.879,0.094,-0.107,1.55,7.88,-0.62,10.848,105.27,459,0
414.00,30.78,87.40,26.31,976.76,9.646,0.770,0.495,12.65,-6.06,-22.22,10.319,109.34,457,0
415.00,30.79,87.42,26.51,976.77,9.870,0.960,1.533,-33.64,10.73,13.29,11.079,120.17,456,0
416.00,30.82,87.48,26.60,976.76,10.068,-0.336,0.539,-9.13,-4.87,-0.42,12.429,36.03,459,0
417.00,30.87,87.57,26.65,976.78,9.951,-0.248,0.305,-8.52,-0.16,-1.81,10.545,9.79,458,0
418.00,30.91,87.64,26.75,976.75,9.960,-0.292,0.195,-8.55,0.64,-1.79,10.243,9.25,459,0
419.00,30.92,87.66,26.58,976.76,9.961,-0.283,0.185,-8.47,0.87,-1.95,10.204,9.00,458,0
420.00,30.96,87.73,26.48,976.78,9.961,-0.288,0.175,-8.52,0.65,-1.80,10.204,9.31,459,0
421.00,30.99,87.78,26.25,976.76,9.958,-0.295,0.173,-8.49,0.95,-1.84,10.194,9.21,451,0
422.00,31.01,87.82,26.04,976.77,9.951,-0.389,0.335,-8.59,2.74,-0.81,10.558,17.93,458,0
423.00,31.03,87.85,26.05,976.80,9.944,-0.429,0.518,-8.15,1.78,-2.37,10.517,19.59,459,0
424.00,31.03,87.85,26.19,976.78,9.952,-0.362,0.397,-8.61,-1.43,-1.80,10.313,16.86,459,0
425.00,31.03,87.85,26.44,976.75,9.937,-0.366,0.634,-6.95,5.36,-1.77,10.341,18.07,459,0
426.00,31.05,87.89,26.52,976.77,9.946,-0.452,0.453,-8.61,-2.95,-1.20,10.344,34.69,458,0
427.00,31.05,87.89,26.50,976.78,9.955,-0.398,0.443,-5.79,1.62,-4.88,10.342,25.95,457,0
428.00,31.05,87.89,26.49,976.78,9.924,0.016,1.451,-15.28,3.41,3.60,11.358,90.02,458,0
429.00,31.11,88.00,26.45,976.76,9.557,-1.142,0.631,-2.90,8.40,-4.90,10.922,69.09,457,0
430.00,31.13,88.03,26.34,976.78,9.947,-0.174,1.716,-0.14,-9.46,-8.93,11.062,51.90,458,0
431.00,31.14,88.05,26.55,976.77,9.951,0.845,0.727,-0.29,2.44,-0.20,10.446,47.14,458,0
432.00,31.12,88.02,26.51,976.77,9.937,0.550,0.563,-14.90,-0.47,0.22,10.213,39.68,459,0
433.00,31.11,88.00,26.68,976.73,9.920,0.042,0.867,-13.87,2.95,2.15,10.278,44.48,456,0
434.00,31.12,88.02,26.80,976.76,9.899,-0.586,1.120,-7.02,0.80,-2.04,10.230,29.55,459,0
435.00,31.16,88.09,26.68,976.75,9.935,-0.392,0.781,-4.62,-0.24,-3.12,10.271,38.06,458,0
436.00,31.20,88.16,26.56,976.79,9.781,0.350,0.576,-13.16,2.23,-8.26,12.057,43.95,459,0
437.00,31.22,88.20,26.19,976.76,9.988,0.149,1.068,-9.10,-0.14,1.58,12.578,32.78,457,0
438.00,31.26,88.27,25.82,976.79,9.953,0.046,0.878,-8.80,-0.30,-0.41,10.670,19.55,459,0
439.00,31.26,88.27,25.68,976.82,9.938,-0.028,0.696,-8.65,1.78,-3.50,10.696,18.69,455,0
440.00,31.29,88.32,25.66,976.80,9.915,0.001,0.930,-10.94,2.51,-0.99,10.974,26.70,459,0
441.00,31.32,88.38,25.77,976.81,9.915,-0.065,1.099,-8.56,0.11,-1.31,10.717,16.55,458,0
442.00,31.34,88.41,25.60,976.84,9.912,-0.076,1.056,-8.52,0.82,-1.94,11.131,19.54,458,0
443.00,31.35,88.43,25.35,976.82,9.910,-0.155,0.971,-9.29,-0.31,-0.60,11.295,30.83,458,0
444.00,31.36,88.45,25.60,976.82,9.912,-0.259,1.000,-8.61,2.83,-2.89,10.624,18.66,458,0
445.00,31.38,88.48,25.33,976.78,9.952,-0.143,1.105,-8.79,-0.87,-1.22,12.153,29.43,456,0
446.00,31.42,88.56,25.66,976.80,9.933,-0.356,0.847,-12.45,1.96,-2.58,11.000,43.31,458,0
447.00,31.45,88.61,25.66,976.80,9.910,-0.271,0.952,-8.95,1.24,-2.19,10.981,26.47,459,0
448.00,31.43,88.57,25.70,976.81,9.897,-0.302,1.029,-14.63,1.74,-2.91,10.923,76.44,458,0
449.00,31.39,88.50,26.82,976.80,9.889,-0.391,1.152,-11.47,1.50,-0.23,10.840,24.98,458,0
450.00,31.42,88.56,26.83,976.81,9.901,-0.498,1.252,-8.50,1.22,-2.60,11.052,15.72,456,0
451.00,31.49,88.68,27.36,976.79,9.938,-0.378,1.309,-8.45,0.63,-2.31,13.047,24.84,457,0
452.00,31.48,88.66,27.50,976.80,9.895,-0.500,1.319,-8.40,0.22,-2.64,10.888,18.86,459,0
453.00,31.46,88.63,27.00,976.78,9.881,-0.579,1.297,-8.56,1.01,-0.64,11.556,16.95,457,0
454.00,31.45,88.61,26.56,976.82,9.895,-0.471,1.281,-7.96,0.32,-1.72,10.725,22.38,459,0
455.00,31.46,88.63,26.35,976.80,9.862,-0.555,1.261,-7.03,0.97,-3.03,11.494,29.98,457,0
456.00,31.46,88.63,26.49,976.82,9.887,-0.405,1.235,-8.49,0.74,-2.26,11.087,26.53,457,0
457.00,31.49,88.68,26.72,976.82,9.897,-0.400,1.202,-8.50,0.69,-1.74,11.389,16.34,457,0
458.00,31.51,88.72,25.92,976.78,9.896,-0.362,1.218,-8.52,0.64,-2.07,10.312,9.77,459,0
459.00,31.53,88.75,26.73,976.80,9.868,-0.419,1.164,-8.77,0.06,0.16,10.413,18.05,458,0
460.00,31.58,88.84,26.84,976.82,9.931,-0.268,1.271,-8.31,1.23,-3.32,11.182,36.79,458,0
461.00,31.61,88.90,26.39,976.77,9.900,-0.431,1.142,-8.38,1.24,-1.92,11.289,47.48,458,0
462.00,31.62,88.92,25.56,976.78,9.910,-0.355,1.221,-8.76,0.27,-0.72,10.933,15.42,456,0
463.00,31.64,88.95,26.03,976.78,9.895,-0.483,1.213,-7.90,1.90,-3.23,11.184,40.42,458,0
464.00,31.62,88.92,26.01,976.75,9.895,-0.262,1.249,-8.42,0.70,-2.11,10.105,10.02,458,0
465.00,31.69,89.04,25.71,976.79,9.898,-0.216,1.233,-8.43,0.80,-2.10,10.296,9.09,458,0
466.00,31.68,89.02,25.41,976.77,9.897,-0.195,1.240,-8.50,0.83,-1.91,10.232,9.39,458,0
467.00,31.69,89.04,24.98,976.79,9.901,-0.185,1.232,-8.47,0.78,-1.91,10.037,8.87,457,0
468.00,31.70,89.06,24.40,976.76,9.901,-0.173,1.233,-8.47,0.75,-1.98,10.092,9.01,451,0
469.00,31.75,89.15,24.27,976.77,9.899,-0.149,1.233,-8.58,0.87,-2.09,10.516,11.30,457,0
470.00,31.79,89.22,23.95,976.77,9.900,-0.118,1.235,-8.47,0.82,-1.92,10.087,9.06,458,0
471.00,31.81,89.26,23.86,976.80,9.906,-0.087,1.081,-8.75,-0.78,-2.16,10.662,17.25,457,0
472.00,31.81,89.26,23.76,976.80,9.918,-0.075,1.133,-8.44,1.61,-1.78,10.377,12.92,459,0
473.00,31.79,89.22,24.11,976.81,9.912,-0.093,1.118,-8.47,0.87,-1.83,10.204,9.37,457,0
474.00,31.85,89.33,24.20,976.77,9.908,-0.084,1.141,-8.47,0.71,-1.82,10.409,13.32,456,0
475.00,31.87,89.37,24.48,976.80,9.915,-0.097,1.018,-8.73,0.47,-1.78,10.650,14.48,458,0
476.00,31.87,89.37,24.98,976.78,9.920,-0.140,0.996,-11.61,0.63,-1.88,11.892,35.37,458,0
477.00,31.89,89.40,25.35,976.79,9.917,-0.152,0.921,-11.59,-0.02,-2.20,10.432,26.51,458,0
478.00,31.94,89.49,25.76,976.79,9.940,-0.138,0.877,-15.02,-1.62,-1.91,10.452,42.20,457,0
479.00,32.01,89.62,25.96,976.80,9.935,0.033,0.210,-13.46,0.78,-2.89,10.660,45.81,457,0
480.00,32.09,89.76,25.94,976.80,9.969,0.027,0.340,-8.43,-0.64,-3.28,10.353,13.21,458,0
481.00,32.16,89.89,25.95,976.80,9.917,0.353,-0.028,-9.52,-1.02,-2.65,10.527,22.08,459,0
482.00,32.22,90.00,25.56,976.77,9.987,0.195,0.266,-8.94,2.73,-1.02,10.406,18.75,458,0
483.00,32.29,90.12,25.11,976.77,9.946,0.137,0.551,-7.99,3.60,0.27,10.259,16.41,458,0
484.00,32.35,90.23,24.87,976.76,9.937,-0.138,0.570,-8.88,-1.26,-2.99,10.815,16.84,458,0
485.00,32.40,90.32,24.52,976.75,9.952,-0.028,0.424,-8.79,1.43,-1.31,10.856,15.85,456,0
486.00,32.44,90.39,24.37,976.74,9.953,-0.040,0.510,-8.54,0.15,-2.01,10.322,10.93,459,0
487.00,32.49,90.48,24.43,976.78,9.966,-0.079,0.646,-8.51,0.87,-1.76,10.557,14.48,458,0
488.00,32.55,90.59,24.38,976.75,9.927,-0.044,0.529,-8.72,3.01,-1.23,10.702,33.16,458,0
489.00,32.62,90.72,24.17,976.78,9.938,-0.130,0.802,-8.48,0.86,-1.86,10.085,8.94,458,0
490.00,32.69,90.84,24.14,976.77,9.937,-0.121,0.824,-8.39,0.61,-2.41,10.633,13.94,458,0
491.00,32.76,90.97,23.91,976.77,9.922,-0.117,0.792,-8.49,1.45,-1.30,10.776,13.93,456,0
492.00,32.81,91.06,23.75,976.76,9.933,-0.147,0.799,-8.46,0.91,-1.27,12.901,19.71,458,0
493.00,32.86,91.15,23.91,976.75,9.929,-0.204,0.850,-8.47,1.04,-2.11,10.872,10.21,457,0
494.00,32.90,91.22,24.59,976.75,9.932,-0.186,0.883,-8.49,0.84,-1.88,10.427,9.03,458,0
495.00,32.94,91.29,24.74,976.77,9.930,-0.185,0.893,-8.50,0.92,-1.81,10.075,9.02,458,0
496.00,32.99,91.38,24.59,976.76,9.930,-0.184,0.898,-8.48,0.82,-1.91,10.081,8.95,458,0
497.00,33.03,91.45,24.48,976.73,9.942,-0.166,0.891,-8.34,0.11,-2.59,10.337,13.11,456,0
498.00,33.05,91.49,24.34,976.74,9.929,-0.017,0.752,-8.48,1.38,-1.40,10.481,14.89,458,0
499.00,33.05,91.49,24.16,976.73,9.939,-0.026,0.776,-8.44,1.20,-1.56,10.483,14.12,458,0
500.00,33.09,91.56,24.17,976.76,9.932,-0.053,0.843,-8.43,0.65,-2.37,10.268,10.49,458,0
501.00,33.16,91.69,24.20,976.75,9.941,0.201,0.691,-8.10,0.21,-2.79,15.133,17.39,458,0
502.00,33.21,91.78,24.03,976.73,9.945,0.116,0.761,-8.52,1.15,-1.50,10.416,13.32,459,0
503.00,33.26,91.87,23.81,976.76,9.949,0.026,0.844,-8.30,0.67,-2.34,10.970,18.73,456,0
504.00,33.29,91.92,23.72,976.74,9.931,0.654,0.562,-1.27,2.12,-14.06,10.772,63.17,458,0
505.00,33.32,91.98,23.79,976.75,9.653,1.943,0.847,-9.47,0.77,6.28,10.581,39.60,458,0
506.00,33.37,92.07,23.78,976.74,9.891,0.975,0.851,-7.01,0.87,-6.39,11.158,36.11,458,0
507.00,33.39,92.10,23.89,976.75,9.651,2.211,1.017,-8.55,1.69,0.33,13.942,52.69,459,0
508.00,33.42,92.16,23.43,976.75,9.837,1.340,0.970,-8.05,1.64,-5.62,11.212,34.36,457,0
509.00,33.46,92.23,23.59,976.75,9.840,1.220,1.101,-9.34,0.70,4.98,10.713,58.87,456,0
510.00,33.52,92.34,23.50,976.74,9.848,1.227,1.138,-1.95,1.05,-7.56,10.721,62.76,458,0
511.00,33.55,92.39,23.24,976.73,9.692,1.735,1.344,-5.85,5.53,-5.40,11.442,55.82,458,0
512.00,33.58,92.44,23.28,976.79,9.706,1.708,1.573,-9.44,-0.77,2.22,11.083,38.89,456,0
513.00,33.61,92.50,23.32,976.75,9.708,1.692,1.443,-8.80,1.15,2.10,10.953,19.62,459,0
514.00,33.65,92.57,23.42,976.78,9.791,1.225,1.500,-8.53,0.70,-1.49,10.784,13.20,458,0
515.00,33.66,92.59,23.22,976.78,9.788,1.263,1.468,-8.52,0.84,-1.75,10.337,11.29,450,0
516.00,33.59,92.46,23.25,976.78,9.787,1.257,1.465,-8.51,0.86,-1.73,10.253,9.60,458,0
517.00,33.60,92.48,23.37,976.78,9.786,1.271,1.437,-8.24,0.28,-2.92,10.420,15.51,458,0
518.00,33.67,92.61,23.14,976.78,9.783,1.322,1.470,-8.72,1.22,-0.82,11.345,22.41,457,0
519.00,33.70,92.66,23.03,976.79,9.801,1.208,1.454,-8.39,1.00,-2.74,10.350,13.34,458,0
520.00,33.72,92.70,22.93,976.78,9.777,1.411,1.505,-8.52,0.97,-2.22,11.213,19.10,456,0
521.00,33.77,92.79,23.01,976.77,9.750,1.371,1.502,-8.86,0.60,0.47,11.036,17.71,458,0
522.00,33.80,92.84,23.00,976.75,9.818,0.971,1.501,-8.83,1.24,0.28,12.289,25.30,458,0
523.00,33.82,92.88,22.50,976.76,9.859,0.767,1.554,-8.33,0.84,-2.18,11.721,12.62,458,0
524.00,33.82,92.88,22.37,976.77,9.832,0.583,1.406,-9.08,-0.31,-1.28,11.421,18.08,458,0
525.00,33.85,92.93,22.21,976.76,9.858,0.567,1.411,-8.47,1.13,-1.43,10.120,10.96,458,0
526.00,33.84,92.91,22.13,976.77,9.854,0.491,1.470,-8.53,1.25,-1.39,10.099,11.57,457,0
527.00,33.86,92.95,21.88,976.79,9.853,0.427,1.531,-8.48,0.87,-1.95,10.330,11.09,458,0
528.00,33.88,92.98,21.91,976.76,9.831,0.200,1.775,-8.60,2.98,1.67,10.359,17.07,458,0
529.00,33.91,93.04,22.05,976.76,9.835,0.164,1.665,-8.07,-0.76,-4.49,10.341,19.02,458,0
530.00,33.88,92.98,22.52,976.79,9.819,0.821,1.552,-7.99,-0.30,-3.97,10.379,24.82,459,0
531.00,33.84,92.91,22.91,976.77,9.859,0.610,1.400,-8.46,0.62,-1.73,10.046,9.21,458,0
532.00,33.85,92.93,22.86,976.75,9.843,0.721,1.426,-8.34,0.95,-3.83,10.600,15.63,456,0
533.00,33.82,92.88,22.96,976.79,9.850,0.743,1.319,-8.23,-1.54,0.14,10.324,12.40,458,0
534.00,33.81,92.86,22.98,976.77,9.843,1.039,1.308,-8.20,1.74,-6.46,10.338,23.02,458,0
535.00,33.80,92.84,23.03,976.77,9.828,1.400,0.899,-8.32,-0.38,-3.26,10.649,17.00,458,0
536.00,33.81,92.86,22.98,976.78,9.843,0.992,1.201,-9.24,2.19,2.48,15.665,40.76,458,0
537.00,33.79,92.82,23.24,976.76,9.871,0.797,1.182,-8.71,2.55,-2.53,10.202,21.44,458,0
538.00,33.75,92.75,22.96,976.78,9.812,0.423,1.754,-9.21,-0.74,-0.03,11.049,27.27,456,0
539.00,33.70,92.66,23.12,976.78,9.744,0.635,1.786,-14.08,9.76,-2.86,10.602,45.94,459,0
540.00,33.74,92.73,22.72,976.77,9.809,0.141,1.854,-9.51,-4.41,-0.47,10.912,46.60,457,0
541.00,33.76,92.77,22.79,976.78,9.776,0.586,1.884,-7.91,1.25,-6.27,10.196,16.04,460,0
542.00,33.79,92.82,22.85,976.77,9.759,1.064,1.812,-8.32,-0.32,-2.70,10.215,12.43,457,0
543.00,33.78,92.80,22.91,976.78,9.803,1.093,1.587,-8.62,2.03,-2.76,11.305,52.41,458,0
544.00,33.79,92.82,22.54,976.80,9.674,1.419,1.836,-8.99,-2.62,0.77,11.063,38.52,456,0
545.00,33.67,92.61,22.16,976.78,9.799,0.842,1.479,-8.93,3.30,2.64,15.850,27.76,458,0
546.00,33.57,92.43,22.16,976.76,9.820,0.316,1.773,-8.49,-0.91,-2.50,11.266,18.67,459,0
547.00,33.54,92.37,22.90,976.76,9.840,0.387,1.617,-8.50,0.09,-2.11,11.118,16.80,458,0
548.00,33.54,92.37,23.00,976.76,9.846,0.457,1.510,-8.47,0.23,-2.14,10.862,15.17,459,0
549.00,33.57,92.43,22.98,976.76,9.852,0.458,1.486,-8.46,0.81,-1.86,14.876,27.51,458,0
550.00,33.61,92.50,22.47,976.78,9.854,0.487,1.445,-8.48,0.78,-1.80,10.046,8.84,457,0
551.00,33.60,92.48,22.12,976.77,9.857,0.441,1.472,-8.55,1.08,-1.39,10.210,13.14,457,0
552.00,33.65,92.57,22.19,976.77,9.859,0.459,1.404,-8.55,0.29,-2.17,10.081,11.70,459,0
553.00,33.67,92.61,22.41,976.78,9.863,0.468,1.384,-8.50,0.74,-1.98,10.154,8.97,458,0
554.00,33.65,92.57,22.58,976.79,9.865,0.462,1.405,-8.41,0.92,-1.92,11.713,12.38,459,0
555.00,33.64,92.55,22.41,976.79,9.865,0.530,1.280,-8.28,0.11,-2.17,10.631,11.15,458,0
556.00,33.64,92.55,22.31,976.80,9.879,0.550,1.189,-8.24,1.44,-2.08,10.872,22.54,456,0
557.00,33.57,92.43,21.86,976.79,9.865,0.599,1.364,-8.42,0.59,-2.13,10.487,10.77,458,0
558.00,33.50,92.30,21.83,976.78,9.847,0.560,1.489,-8.38,2.28,-1.00,10.743,25.10,458,0
559.00,33.56,92.41,21.63,976.77,9.841,0.589,1.513,-8.45,0.16,-2.44,10.518,11.96,459,0
560.00,33.59,92.46,21.60,976.75,9.881,0.642,1.421,-8.53,-0.23,-1.78,11.033,21.76,458,0
561.00,33.60,92.48,21.63,976.76,9.816,0.353,1.459,-8.40,1.69,-1.77,12.079,54.71,458,0
562.00,33.62,92.52,21.54,976.77,9.877,0.458,1.301,-8.49,0.88,-2.08,10.382,9.77,451,0
563.00,33.65,92.57,21.57,976.74,9.875,0.479,1.297,-8.48,0.87,-1.92,10.330,9.26,458,0
564.00,33.59,92.46,21.53,976.75,9.875,0.487,1.296,-8.48,0.82,-1.86,10.025,8.84,459,0
565.00,33.52,92.34,21.55,976.76,9.873,0.483,1.296,-8.47,0.84,-1.86,10.027,8.90,457,0
566.00,33.54,92.37,21.77,976.79,9.873,0.487,1.297,-8.48,0.83,-1.88,10.096,8.94,459,0
567.00,33.56,92.41,21.70,976.75,9.872,0.491,1.293,-8.45,0.88,-1.85,10.082,8.94,457,0
568.00,33.63,92.53,21.56,976.80,9.870,0.486,1.306,-8.46,0.86,-1.80,10.411,9.05,457,0
569.00,33.59,92.46,21.80,976.79,9.871,0.487,1.311,-8.48,0.82,-1.91,10.063,8.97,458,0
570.00,33.56,92.41,22.03,976.78,9.873,0.491,1.309,-8.49,0.81,-1.84,10.118,8.92,458,0
571.00,33.51,92.32,22.60,976.76,9.873,0.487,1.309,-8.49,0.83,-1.85,10.037,8.90,459,0
572.00,33.52,92.34,22.63,976.76,9.874,0.486,1.309,-8.48,0.83,-1.84,10.051,8.86,458,0
573.00,33.58,92.44,22.48,976.76,9.875,0.486,1.313,-8.49,0.83,-1.85,10.050,8.90,458,0
574.00,33.62,92.52,22.48,976.79,9.875,0.485,1.313,-8.48,0.82,-1.85,10.104,8.85,456,0
575.00,33.65,92.57,22.46,976.77,9.871,0.484,1.313,-8.48,0.87,-1.83,10.670,9.21,459,0
576.00,33.70,92.66,22.55,976.77,9.868,0.497,1.301,-8.38,0.62,-2.12,10.970,11.79,457,0
577.00,33.72,92.70,22.51,976.78,10.141,0.505,1.581,-6.40,0.46,1.19,13.634,61.84,459,0
578.00,33.68,92.62,22.06,976.72,9.936,0.017,2.286,23.53,11.94,-1.53,14.663,125.03,458,0
579.00,33.54,92.37,21.94,976.70,9.390,0.653,0.893,-7.13,-8.70,9.92,12.224,108.33,456,0
580.00,33.58,92.44,21.98,976.68,9.751,-0.414,0.407,-7.52,2.21,-2.83,11.355,49.64,458,0
581.00,33.58,92.44,21.80,976.66,10.051,-0.503,0.749,-29.91,1.40,-1.97,10.803,57.28,457,0
582.00,33.65,92.57,22.00,976.69,9.769,-0.238,1.102,1.88,10.47,-13.20,10.982,48.59,458,0
583.00,33.64,92.55,22.01,976.69,9.678,0.521,2.056,7.92,0.45,13.17,11.200,58.80,458,0
584.00,33.57,92.43,21.70,976.69,10.000,0.058,1.587,-3.94,-5.94,-5.84,11.813,38.87,458,0
585.00,33.53,92.35,21.43,976.69,9.806,-0.494,1.219,-46.94,9.77,4.11,11.819,133.20,456,0
586.00,33.46,92.23,21.51,976.65,10.003,-0.584,1.264,-70.81,6.73,-16.91,11.932,178.70,458,0
587.00,33.51,92.32,22.04,976.66,9.851,-0.571,0.275,-24.94,-1.58,3.44,10.555,56.50,458,0
588.00,33.47,92.25,22.40,976.65,9.819,-0.738,0.376,-22.09,3.02,-6.13,10.752,42.87,458,0
589.00,33.50,92.30,22.21,976.68,10.090,-0.413,1.079,-7.77,0.34,-4.16,10.661,27.61,458,0
590.00,33.47,92.25,22.39,976.65,9.890,-0.594,0.586,-10.20,0.07,0.04,10.211,27.43,459,0
591.00,33.37,92.07,22.03,976.67,9.896,-0.649,0.280,-9.89,-1.87,-0.48,10.253,20.69,457,0
592.00,33.35,92.03,22.17,976.66,9.936,-0.675,0.385,-7.41,2.67,-2.42,10.519,20.83,458,0
593.00,33.36,92.05,22.24,976.67,9.950,-0.668,0.511,-7.81,1.95,-2.51,10.344,19.29,459,0
594.00,33.37,92.07,22.47,976.69,9.777,-0.567,0.685,0.71,2.21,-2.89,10.122,17.22,459,0
595.00,33.37,92.07,22.47,976.71,9.980,0.364,1.122,1.08,0.39,-7.41,11.049,33.22,458,0
596.00,33.30,91.94,23.40,976.72,9.847,1.046,1.110,-6.60,4.33,-0.37,11.065,33.82,458,0
597.00,33.23,91.81,23.36,976.69,9.630,1.502,2.417,-4.50,7.59,-9.29,10.724,43.91,456,0
598.00,33.28,91.90,23.26,976.69,9.305,2.205,2.500,-9.12,1.43,-4.75,10.303,20.44,459,0
599.00,33.21,91.78,23.41,976.71,9.264,2.925,2.680,-8.35,0.30,-4.51,11.065,21.39,458,0
600.00,33.09,91.56,23.03,976.71,9.159,3.079,2.582,-9.17,0.24,-2.90,10.251,17.54,459,0
601.00,32.97,91.35,23.10,976.70,9.251,2.961,2.589,-7.66,0.44,-0.23,10.691,14.19,458,0
602.00,32.98,91.36,23.14,976.69,9.144,2.707,2.789,-14.08,1.74,-2.93,10.320,32.66,459,0
603.00,33.03,91.45,23.12,976.67,9.186,2.576,2.890,-8.71,0.30,-2.20,10.284,16.42,457,0
604.00,33.00,91.40,23.26,976.68,9.175,2.828,2.875,-6.98,1.23,-2.26,10.246,13.34,458,0
605.00,32.98,91.36,23.29,976.68,9.195,2.581,2.868,-8.18,-0.64,1.40,10.314,15.06,459,0
606.00,32.92,91.26,23.43,976.67,9.471,2.107,2.350,-11.11,-4.60,1.67,11.079,34.30,458,0
607.00,32.89,91.20,23.18,976.71,9.071,1.884,1.697,-12.94,-3.79,-1.85,10.434,49.58,458,0
608.00,32.71,90.88,23.38,976.81,9.764,2.129,1.768,-9.54,10.15,-10.79,12.102,77.32,458,0
609.00,32.67,90.81,23.65,976.86,9.596,2.431,2.303,-7.23,-5.79,10.88,19.772,88.96,451,0
610.00,32.63,90.73,23.54,976.85,9.724,1.454,1.686,-8.46,0.63,-2.24,10.223,15.76,457,0
611.00,32.61,90.70,23.44,976.84,9.585,2.160,1.658,-8.17,0.58,-3.58,10.177,19.28,459,0
612.00,32.54,90.57,23.51,976.83,9.703,1.628,1.603,-8.77,0.84,0.34,10.480,19.76,458,0
613.00,32.49,90.48,24.04,976.81,9.722,1.515,1.612,-8.53,0.82,-1.57,10.032,8.82,457,0
614.00,32.48,90.46,24.30,976.82,9.726,1.485,1.614,-8.50,0.81,-1.67,10.027,8.86,456,0
615.00,32.52,90.54,24.85,976.83,9.728,1.463,1.615,-8.50,0.81,-1.77,10.048,8.87,457,0
616.00,32.61,90.70,25.35,976.84,9.729,1.454,1.611,-8.50,0.82,-1.79,10.022,8.88,458,0
617.00,32.58,90.64,25.85,976.82,9.728,1.443,1.610,-8.50,0.82,-1.76,10.029,8.89,458,0
618.00,32.59,90.66,25.45,976.81,9.731,1.435,1.615,-8.49,0.81,-1.81,10.029,8.87,458,0
619.00,32.56,90.61,25.41,976.84,9.733,1.429,1.613,-8.49,0.81,-1.83,10.044,8.83,458,0
620.00,32.61,90.70,25.83,976.86,9.734,1.424,1.612,-8.51,0.81,-1.76,10.037,8.88,455,0
621.00,32.64,90.75,26.15,976.83,9.737,1.412,1.610,-8.50,0.81,-1.80,10.023,8.88,458,0
622.00,32.69,90.84,26.01,976.85,9.738,1.408,1.612,-8.50,0.80,-1.80,10.046,8.83,457,0
623.00,32.72,90.90,26.37,976.84,9.737,1.404,1.610,-8.49,0.82,-1.82,10.027,8.89,458,0
624.00,32.76,90.97,27.56,976.86,9.741,1.398,1.607,-8.50,0.80,-1.82,10.035,8.86,457,0
625.00,32.78,91.00,28.61,976.85,9.742,1.395,1.607,-8.49,0.81,-1.82,10.024,8.86,458,0
626.00,32.81,91.06,28.11,976.85,9.743,1.391,1.604,-8.50,0.81,-1.82,10.036,8.84,456,0
627.00,32.79,91.02,26.39,976.85,9.742,1.391,1.604,-8.50,0.80,-1.82,10.032,8.88,455,0
628.00,32.82,91.08,25.84,976.85,9.743,1.386,1.606,-8.50,0.81,-1.83,10.040,8.85,459,0
629.00,32.84,91.11,25.30,976.83,9.739,1.383,1.604,-8.49,0.80,-1.83,10.028,8.87,457,0
630.00,32.83,91.09,25.51,976.85,9.738,1.381,1.603,-8.50,0.80,-1.82,10.043,8.89,458,0
631.00,32.84,91.11,25.89,976.87,9.742,1.380,1.603,-8.49,0.81,-1.83,10.030,8.89,457,0
632.00,32.87,91.17,26.07,976.86,9.737,1.378,1.605,-8.50,0.81,-1.82,10.027,8.93,456,0
633.00,32.86,91.15,24.96,976.83,9.741,1.374,1.602,-8.50,0.81,-1.79,10.018,8.89,457,0
634.00,32.88,91.18,24.29,976.82,9.743,1.365,1.606,-8.49,0.81,-1.78,10.036,8.84,458,0
635.00,32.90,91.22,23.76,976.93,11.326,1.146,1.365,-23.77,-13.99,-16.31,21.178,212.88,458,0
636.00,33.08,91.54,24.01,976.78,8.234,1.730,-1.880,-1.83,-5.87,9.44,13.252,168.34,457,0
637.00,33.21,91.78,23.61,976.76,9.362,-1.780,-2.725,21.58,-24.23,12.30,18.951,180.84,459,0
638.00,33.31,91.96,23.51,976.72,7.992,-0.227,-2.364,16.78,5.94,-36.37,20.710,177.41,455,0
639.00,33.37,92.07,23.01,976.79,9.000,2.534,-4.860,-2.22,0.64,-27.10,19.864,177.85,458,0
640.00,33.39,92.10,22.49,976.77,10.015,0.405,-1.185,-11.82,30.13,28.48,19.784,195.30,458,0
641.00,33.49,92.28,22.59,976.78,9.103,0.948,0.633,-17.20,22.39,-6.15,24.324,95.72,458,0
642.00,33.47,92.25,22.67,976.77,9.447,-0.352,3.268,-7.66,-5.55,-5.36,12.653,71.84,458,0
643.00,33.47,92.25,22.58,976.77,9.597,1.070,2.269,-0.65,-2.37,-1.45,11.046,29.31,458,0
644.00,33.48,92.26,22.54,976.77,9.872,0.151,1.148,4.49,-4.56,3.66,12.494,79.52,456,0
645.00,33.52,92.34,22.81,976.79,9.929,0.460,1.040,-10.61,0.77,-1.74,10.659,31.63,458,0
646.00,33.57,92.43,23.17,976.77,10.266,0.409,0.751,-7.74,4.68,2.53,15.481,62.70,460,0
647.00,33.66,92.59,23.14,976.73,9.824,0.551,-0.912,-11.21,-3.88,-17.71,13.826,95.78,456,0
648.00,33.59,92.46,22.95,976.74,9.296,2.379,0.215,-42.35,-9.45,-2.46,11.397,100.24,459,0
649.00,33.45,92.21,23.11,976.73,9.577,1.214,1.196,-25.11,3.37,2.72,12.262,73.62,457,0
650.00,33.44,92.19,23.23,976.73,8.947,-0.693,2.913,-26.52,10.86,11.87,11.119,113.50,456,0
651.00,33.40,92.12,23.27,976.78,10.097,-0.328,3.745,-22.43,-8.96,-17.07,13.673,128.45,459,0
652.00,33.47,92.25,23.35,976.81,10.009,0.166,0.969,-8.30,-1.75,-7.56,12.408,55.77,457,0
653.00,33.54,92.37,23.50,976.81,9.895,0.548,0.964,-8.68,0.48,-1.96,10.226,9.67,459,0
654.00,33.65,92.57,23.64,976.82,9.894,0.541,0.953,-8.65,1.07,-1.73,10.369,10.63,458,0
655.00,33.70,92.66,23.64,976.84,9.896,0.541,0.996,-8.46,0.84,-1.92,10.035,8.90,450,0
656.00,33.71,92.68,23.41,976.83,9.894,0.549,0.996,-8.49,0.80,-1.88,10.019,8.87,459,0
657.00,33.72,92.70,23.40,976.83,9.891,0.585,1.061,-8.61,1.36,-2.44,10.606,15.92,458,0
658.00,33.73,92.71,22.94,976.83,9.878,0.629,1.188,-8.82,1.25,-1.35,10.338,15.48,459,0
659.00,33.73,92.71,26.79,976.84,9.785,0.287,1.528,-15.75,4.03,4.17,13.251,94.19,457,0
660.00,33.74,92.73,28.14,976.83,9.768,-0.134,1.934,-8.07,2.25,-5.20,10.647,39.83,459,0
661.00,33.74,92.73,25.62,976.85,9.783,0.079,1.931,-8.45,0.71,-2.31,10.143,10.12,455,0
662.00,33.74,92.73,24.25,976.83,9.769,0.159,2.003,-8.45,1.32,-2.17,10.251,10.91,459,0
663.00,33.73,92.71,23.74,976.82,9.767,0.152,2.009,-8.50,0.78,-1.91,10.089,9.00,458,0
664.00,33.71,92.68,23.03,976.84,9.769,0.169,1.997,-8.50,0.85,-1.79,10.065,9.01,458,0
665.00,33.71,92.68,22.67,976.85,9.763,0.151,2.017,-8.51,0.92,-1.65,10.031,8.90,458,0
666.00,33.71,92.68,22.61,976.81,9.756,0.123,2.047,-8.46,1.00,-1.84,10.028,8.96,458,0
667.00,33.70,92.66,22.39,976.85,9.755,0.156,2.056,-8.47,0.62,-2.05,10.056,8.89,457,0
668.00,33.69,92.64,22.64,976.81,9.758,0.169,2.035,-8.49,0.85,-1.80,10.061,8.86,457,0
669.00,33.68,92.62,22.13,976.83,9.754,0.155,2.051,-8.50,0.91,-1.73,10.054,8.91,459,0
670.00,33.67,92.61,22.19,976.83,9.752,0.149,2.071,-8.47,0.77,-2.00,10.047,8.92,457,0
671.00,33.69,92.64,22.11,976.84,9.754,0.177,2.057,-8.49,0.75,-1.90,10.046,8.93,458,0
672.00,33.67,92.61,22.19,976.81,9.751,0.174,2.061,-8.46,0.92,-1.75,10.055,8.84,458,0
673.00,33.66,92.59,22.27,976.82,9.753,0.165,2.067,-8.48,0.81,-1.91,10.056,8.95,456,0
674.00,33.61,92.50,22.11,976.81,9.754,0.169,2.059,-8.50,0.77,-1.75,10.078,9.01,459,0
675.00,33.59,92.46,22.15,976.81,9.713,0.339,2.410,-11.66,12.97,-14.65,19.722,103.21,457,0
676.00,33.54,92.37,22.20,976.59,10.772,1.853,4.451,3.31,60.05,-11.25,29.376,986.33,458,0
677.00,33.07,91.53,22.23,976.06,13.808,0.747,4.025,-29.05,-19.10,18.48,43.239,770.85,458,0
678.00,32.53,90.55,22.50,975.37,12.543,1.628,3.138,82.97,4.36,46.05,16.477,133.25,458,0
679.00,32.61,90.70,22.15,974.76,9.305,-0.141,1.535,105.67,3.03,26.45,13.198,115.17,456,0
680.00,32.58,90.64,22.18,974.12,10.611,-0.664,1.730,97.17,18.44,17.02,12.279,107.31,459,0
681.00,32.40,90.32,22.22,973.61,10.158,-1.415,2.539,98.38,12.73,5.63,11.991,115.57,457,0
682.00,31.86,89.35,21.73,972.70,11.963,-0.462,3.570,60.34,-10.31,2.67,14.221,74.09,459,0
683.00,31.80,89.24,21.65,971.92,9.542,0.504,2.329,68.38,-2.52,24.36,12.201,88.92,458,0
684.00,31.89,89.40,21.55,971.23,8.932,-0.370,1.809,45.53,14.08,-2.88,10.327,58.19,458,0
685.00,31.48,88.66,21.72,970.90,9.953,-0.766,3.203,22.27,-15.80,-2.57,13.412,45.91,456,0
686.00,31.06,87.91,22.02,970.02,12.921,1.465,4.459,59.26,-17.72,35.91,14.776,166.74,457,0
687.00,31.20,88.16,22.16,969.45,10.394,0.102,1.599,141.65,8.47,30.84,13.542,168.75,458,0
688.00,31.16,88.09,22.19,968.79,10.208,-0.183,2.378,134.28,12.56,29.95,13.347,149.12,457,0
689.00,31.08,87.94,22.34,968.16,11.876,-1.596,2.706,101.53,5.49,-3.10,15.519,115.97,458,0
690.00,30.47,86.85,22.33,967.32,10.970,-0.790,3.874,47.81,-18.58,-2.39,13.646,59.01,457,0
691.00,30.76,87.37,22.38,966.86,9.003,0.349,2.223,54.37,2.46,12.04,10.971,66.43,458,0
692.00,30.80,87.44,22.44,965.60,11.819,-1.040,2.476,51.67,9.10,-10.83,15.259,67.10,457,0
693.00,29.96,85.93,22.68,964.79,11.206,-2.077,3.362,-29.78,-13.76,-32.89,14.863,111.45,458,0
694.00,29.95,85.91,23.31,964.20,8.243,-0.817,1.553,-126.03,3.90,-30.29,10.010,148.76,458,0
695.00,30.29,86.52,23.46,963.63,11.765,-0.605,1.846,-94.43,20.91,-43.38,20.375,119.57,458,0
696.00,30.13,86.23,23.28,962.83,11.052,0.701,1.949,-120.98,12.42,-16.30,18.775,130.75,456,0
697.00,30.05,86.09,23.45,962.14,10.144,0.397,2.390,-121.98,12.06,-20.24,11.764,132.06,457,0
698.00,29.79,85.62,23.34,961.48,10.189,1.408,2.838,-20.12,-8.60,11.91,13.275,103.77,458,0
699.00,29.79,85.62,23.61,960.81,12.086,0.981,1.766,48.63,15.83,16.07,13.894,76.49,458,0
700.00,29.75,85.55,23.54,960.05,9.528,-0.434,1.289,42.68,13.76,2.00,12.474,55.61,458,0
701.00,29.79,85.62,23.53,959.35,8.884,-0.014,1.962,61.10,17.97,19.07,10.657,75.38,451,0
702.00,29.68,85.42,23.62,958.64,12.814,1.242,1.953,22.96,13.52,32.09,14.389,65.96,457,0
703.00,29.58,85.24,23.22,957.77,11.779,0.858,1.355,27.05,19.92,16.55,14.290,46.18,458,0
704.00,29.26,84.67,23.51,957.03,9.832,-0.091,1.903,42.24,-3.53,12.99,11.780,49.82,457,0
705.00,29.12,84.42,23.64,956.25,7.983,0.264,1.670,25.48,0.55,4.03,10.751,47.77,459,0
706.00,29.18,84.52,23.84,955.52,11.186,1.100,2.030,-28.23,11.82,15.17,14.440,60.83,457,0
707.00,29.01,84.22,23.76,954.84,10.601,1.305,2.737,-8.96,-1.87,12.94,13.489,62.18,456,0
708.00,28.87,83.97,24.27,954.18,9.921,0.628,2.316,63.16,-4.06,14.52,11.273,73.54,459,0
709.00,28.80,83.84,24.70,953.42,10.516,0.809,2.372,57.25,-1.18,27.42,12.152,71.01,458,0
710.00,28.81,83.86,24.48,952.65,10.902,1.028,1.949,9.33,6.47,20.14,12.169,53.43,458,0
711.00,28.78,83.80,24.34,952.00,9.257,0.508,2.291,-24.28,-3.96,11.49,10.652,49.08,458,0
712.00,28.57,83.43,23.98,951.43,10.322,-0.314,3.226,5.42,-26.61,-5.57,14.105,38.99,458,0
713.00,27.92,82.26,24.06,950.40,11.135,-1.976,3.198,-59.10,-4.17,-34.02,12.839,116.85,455,0
714.00,27.90,82.22,24.44,950.02,11.569,0.224,1.341,-114.80,17.93,-15.62,13.762,134.08,459,0
715.00,27.88,82.18,24.40,949.45,10.779,0.039,3.231,-83.50,-12.34,-24.46,12.607,130.02,457,0
716.00,27.69,81.84,24.47,948.64,10.571,-0.913,2.104,-71.00,9.56,-31.31,11.533,85.94,457,0
717.00,27.78,82.00,24.58,947.98,9.156,0.399,1.418,-64.58,14.13,-7.36,11.109,70.97,458,0
718.00,27.69,81.84,24.43,947.45,10.133,0.362,2.948,-44.24,-8.55,-17.18,16.167,75.08,458,0
719.00,27.27,81.09,24.58,947.03,12.258,-0.999,4.137,-45.92,-25.24,-18.18,16.551,79.72,456,0
720.00,26.94,80.49,25.02,945.98,11.640,-1.195,2.234,-93.57,6.21,-37.73,15.201,120.61,457,0
721.00,27.02,80.64,25.25,945.47,8.558,0.320,2.018,-104.94,-5.52,-22.15,10.619,116.93,459,0
722.00,26.89,80.40,25.47,944.77,11.275,-1.016,2.187,-107.93,15.42,-38.05,14.660,128.78,457,0
723.00,26.97,80.55,25.32,944.02,11.792,0.857,1.780,-122.57,17.46,-15.26,14.111,142.69,457,0
724.00,27.10,80.78,25.40,943.31,9.555,0.451,2.454,-120.74,6.30,-15.82,11.202,130.40,457,0
725.00,26.99,80.58,25.28,942.60,9.934,0.276,2.582,-90.13,-11.23,-6.54,11.808,109.57,458,0
726.00,26.77,80.19,25.35,941.75,10.277,0.735,2.866,-51.94,-3.13,8.02,13.032,81.24,458,0
727.00,26.57,79.83,25.46,941.01,11.641,1.388,2.528,20.94,3.42,24.95,13.781,49.54,458,0
728.00,26.64,79.95,25.60,940.26,9.734,0.922,1.842,-36.78,-5.24,5.31,12.853,65.24,457,0
729.00,26.51,79.72,25.55,939.62,9.598,0.275,1.810,-78.90,12.26,-17.70,10.658,90.10,458,0
730.00,26.42,79.56,25.55,938.88,10.849,1.390,2.123,-100.25,5.49,-4.43,13.472,128.58,456,0
731.00,26.08,78.94,25.40,938.11,11.491,1.523,3.653,-17.22,-12.35,14.20,14.091,108.79,458,0
732.00,26.27,79.29,25.59,937.36,9.466,0.564,1.669,43.53,6.85,19.27,10.966,69.56,458,0
733.00,26.29,79.32,25.54,936.77,10.289,-0.681,2.372,34.13,-2.66,-15.32,13.465,45.17,458,0
734.00,25.74,78.33,25.83,935.95,12.327,-0.147,4.301,37.71,-30.10,6.65,14.192,76.62,458,0
735.00,25.66,78.19,26.01,935.12,10.620,0.993,2.194,103.25,8.84,37.79,13.044,135.12,458,0
736.00,25.77,78.39,26.46,934.54,9.758,-0.495,2.641,104.87,-9.34,13.53,11.383,112.12,456,0
737.00,25.65,78.17,26.79,933.77,11.730,0.850,1.865,122.10,14.94,44.98,13.867,151.05,458,0
738.00,25.50,77.90,27.73,933.24,11.076,-1.413,3.004,120.49,-2.89,11.38,13.348,142.51,458,0
739.00,25.38,77.68,28.21,932.58,10.101,0.616,2.256,139.08,7.24,32.59,11.485,161.53,457,0
740.00,25.38,77.68,28.68,932.06,9.698,-0.565,2.916,133.95,-4.43,23.33,12.445,144.41,458,0
741.00,25.26,77.47,29.12,931.38,10.862,0.367,2.040,144.23,9.31,36.92,11.837,165.58,455,0
742.00,25.19,77.34,29.48,930.70,10.417,-0.498,3.072,137.66,-5.01,22.63,11.731,149.63,458,0
743.00,25.07,77.13,29.58,930.04,10.998,0.054,2.129,127.26,8.89,25.06,11.941,150.37,456,0
744.00,25.06,77.11,29.51,929.28,10.747,-0.201,3.354,119.88,-17.09,18.65,12.024,133.84,459,0
745.00,25.06,77.11,30.22,928.53,9.164,0.172,1.750,124.02,5.74,32.76,10.009,150.70,458,0
746.00,24.97,76.95,30.50,927.90,10.137,0.122,3.103,108.43,-11.15,29.77,12.336,134.45,458,0
747.00,24.88,76.78,30.79,927.30,11.942,0.303,1.658,127.40,15.01,34.48,13.456,148.04,450,0
748.00,24.70,76.46,31.37,926.49,10.655,-0.853,3.115,122.85,-7.42,16.63,12.756,137.39,458,0
749.00,24.59,76.26,31.59,925.85,9.506,0.202,2.072,103.49,9.99,26.32,11.413,125.53,457,0
750.00,24.59,76.26,31.73,925.28,8.897,-0.469,2.545,82.98,-5.48,8.77,11.075,90.83,458,0
751.00,24.39,75.90,32.05,924.64,11.819,1.262,2.536,93.98,14.94,37.15,14.621,125.34,458,0
752.00,24.53,76.15,32.41,923.98,11.360,-0.931,1.595,112.78,17.72,10.22,14.952,138.32,456,0
753.00,24.61,76.30,32.16,922.60,9.174,-0.236,2.380,115.47,11.66,18.21,11.158,121.93,458,0
754.00,24.58,76.24,32.30,923.01,10.154,-0.872,2.553,111.78,17.79,5.16,12.813,122.71,458,0
755.00,24.19,75.54,32.50,922.31,9.599,0.736,2.946,116.32,-15.20,28.24,12.925,147.72,458,0
756.00,24.35,75.83,32.41,921.98,10.220,-0.469,2.180,131.18,-2.61,21.22,12.286,139.30,457,0
757.00,24.15,75.47,32.76,921.30,11.783,0.358,3.101,126.21,-2.64,46.22,13.131,145.30,459,0
758.00,24.13,75.43,32.67,920.68,9.880,0.015,2.184,108.36,6.93,25.10,11.866,125.93,456,0
759.00,24.03,75.25,32.54,919.93,10.580,0.091,2.065,89.07,18.74,24.20,11.839,109.18,458,0
760.00,24.00,75.20,33.07,919.32,9.502,-0.825,1.315,66.17,10.33,3.74,11.222,82.21,457,0
761.00,23.99,75.18,33.07,918.77,9.767,-0.801,1.933,67.73,16.16,11.85,12.550,76.50,458,0
762.00,23.78,74.80,33.39,918.21,11.308,-0.649,2.924,58.12,3.83,-7.59,13.963,74.30,458,0
763.00,24.03,75.25,33.11,917.56,9.843,0.051,2.341,48.47,-0.36,12.89,11.314,58.76,458,0
764.00,24.18,75.52,33.01,916.84,11.576,-0.217,1.696,20.82,25.17,1.51,13.114,39.14,456,0
765.00,24.06,75.31,33.26,916.12,11.203,-1.037,1.304,4.06,23.59,-13.52,12.688,37.32,457,0
766.00,23.97,75.15,33.30,915.50,9.204,-0.553,2.123,11.94,-3.68,-9.27,10.375,23.29,458,0
767.00,23.68,74.62,33.53,914.68,10.646,0.845,3.327,33.32,-20.50,19.95,13.916,98.54,458,0
768.00,23.63,74.53,33.49,914.17,13.239,0.704,1.583,106.45,20.76,34.66,15.148,137.58,458,0
769.00,23.53,74.35,33.59,913.69,10.541,-1.160,2.803,96.41,-5.42,7.16,12.732,112.18,458,0
770.00,23.69,74.64,33.34,912.91,9.613,0.691,1.999,91.30,9.06,32.18,11.074,115.20,456,0
771.00,23.73,74.71,33.88,912.58,11.468,-1.479,2.475,93.63,3.43,0.76,13.132,111.57,457,0
772.00,23.26,73.87,34.20,911.61,10.909,0.822,3.582,106.72,-11.38,32.56,12.542,152.01,458,0
773.00,23.34,74.01,34.31,911.16,9.818,-0.418,1.692,123.45,8.72,21.76,11.393,130.18,457,0
774.00,23.18,73.72,34.72,910.52,9.573,0.333,2.833,121.42,-7.11,32.70,12.652,146.90,459,0
775.00,23.24,73.83,34.69,909.92,12.014,-0.732,2.358,135.74,5.67,20.04,13.808,148.41,455,0
776.00,23.06,73.51,34.79,909.18,11.293,0.616,3.402,144.36,-10.34,41.17,13.491,175.68,457,0
777.00,23.11,73.60,34.70,908.54,9.539,-0.507,2.131,138.05,6.34,21.41,11.640,147.96,458,0
778.00,23.20,73.76,34.74,908.07,9.521,0.305,2.059,120.80,8.82,25.37,11.852,135.01,458,0
779.00,23.22,73.80,34.77,907.70,9.831,-1.351,2.335,106.03,-1.91,7.86,11.557,119.92,459,0
780.00,22.78,73.00,35.10,906.83,10.218,0.288,3.432,96.08,-13.23,14.95,12.150,124.95,457,0
781.00,22.84,73.11,35.52,906.26,10.925,0.180,2.231,113.34,2.46,30.76,12.402,138.34,457,0
782.00,22.89,73.20,35.29,905.60,10.636,0.151,2.845,112.54,-9.67,30.04,11.995,131.73,457,0
783.00,22.80,73.04,35.15,904.92,11.416,0.028,1.741,101.81,18.61,16.68,12.458,130.94,459,0
784.00,22.79,73.02,35.66,904.08,10.196,-0.872,2.509,94.43,-2.42,3.44,12.070,103.30,457,0
785.00,23.05,73.49,35.37,903.29,8.363,-0.218,1.972,101.71,-2.93,7.73,10.865,111.79,459,0
786.00,22.70,72.86,35.38,902.91,11.071,-0.693,3.598,105.42,-11.80,4.87,12.547,111.97,457,0
787.00,22.40,72.32,35.79,902.07,12.006,1.421,3.265,145.13,-12.21,48.01,12.935,194.02,456,0
788.00,22.53,72.55,36.02,901.34,9.497,-0.625,1.928,156.40,11.19,31.30,11.814,168.14,458,0
789.00,22.45,72.41,35.78,900.73,9.639,-0.261,2.365,146.72,9.16,26.47,11.624,158.57,457,0
790.00,22.23,72.01,35.69,899.98,11.845,0.158,4.155,133.44,-19.59,29.36,13.740,170.51,458,0
791.00,22.22,72.00,35.98,899.32,11.477,0.190,1.845,155.36,13.15,34.90,13.261,186.02,457,0
792.00,22.40,72.32,35.94,898.67,8.543,-0.294,2.370,151.08,8.30,18.94,12.935,166.76,450,0
793.00,22.35,72.23,35.62,898.17,8.337,-0.071,2.429,164.78,-9.18,36.18,12.874,172.82,459,0
794.00,22.21,71.98,35.74,897.57,10.930,0.667,2.396,150.79,0.64,46.88,13.928,173.40,457,0
795.00,22.23,72.01,35.95,897.05,12.072,-1.188,2.522,139.06,11.13,19.54,14.014,154.43,458,0
796.00,22.02,71.64,35.92,896.22,10.111,0.147,2.906,123.08,-2.04,20.84,12.100,132.06,458,0
797.00,22.07,71.73,35.79,895.53,9.562,-0.408,2.386,107.08,2.26,7.16,11.043,115.72,459,0
798.00,21.90,71.42,36.04,894.84,9.745,0.583,2.651,101.15,-3.35,23.10,11.036,116.04,456,0
799.00,21.95,71.51,36.45,894.16,12.109,-0.533,1.660,88.27,25.26,2.02,13.093,97.68,457,0
800.00,21.79,71.22,36.69,893.53,9.630,-0.768,2.534,83.68,-2.08,2.13,11.958,99.29,458,0
801.00,21.73,71.11,36.42,892.93,9.747,-0.035,1.937,55.81,16.46,14.74,12.249,74.09,458,0
802.00,21.80,71.24,36.56,892.24,11.681,-1.162,1.665,35.56,16.37,-5.91,13.093,47.03,458,0
803.00,21.54,70.77,36.27,891.62,11.147,-1.376,3.081,43.61,-10.81,-3.41,12.687,61.45,458,0
804.00,21.41,70.54,36.19,890.71,9.457,-0.068,2.745,30.80,-14.90,11.46,11.629,41.77,456,0
805.00,21.44,70.59,35.90,890.12,8.401,-0.150,1.683,25.91,3.18,-3.92,11.511,40.20,458,0
806.00,21.50,70.70,36.12,889.52,13.319,-1.416,2.048,36.25,20.58,-22.12,14.863,66.18,459,0
807.00,21.31,70.36,36.02,888.79,10.910,-1.392,2.897,69.78,0.42,-12.10,13.860,93.33,456,0
808.00,21.21,70.18,35.55,888.00,9.225,-0.120,2.147,43.36,10.87,7.88,10.814,58.02,459,0
809.00,21.31,70.36,35.33,887.35,10.391,-0.855,1.774,59.76,18.85,5.03,12.210,71.43,455,0
810.00,21.04,69.87,35.25,886.91,11.483,-1.432,3.440,61.82,-9.70,-1.57,12.738,86.56,458,0
811.00,20.89,69.60,35.19,885.85,10.312,0.227,3.276,49.87,-8.69,18.15,11.432,74.63,459,0
812.00,20.93,69.67,34.67,885.25,8.873,0.081,2.071,55.91,-1.18,17.11,9.990,75.34,458,0
813.00,20.96,69.73,34.26,884.70,10.081,-0.331,2.846,41.76,-17.33,5.27,12.637,55.25,458,0
814.00,20.74,69.33,33.97,883.89,11.405,0.251,4.054,24.17,-24.42,15.86,13.432,52.69,459,0
815.00,20.60,69.08,34.08,883.14,10.146,0.922,3.419,82.89,-20.17,24.10,12.046,126.35,456,0
816.00,20.66,69.19,33.93,882.61,10.039,0.963,2.233,107.26,-1.77,47.59,11.909,145.94,457,0
817.00,20.80,69.44,33.83,881.92,13.002,1.519,2.102,18.65,6.35,37.93,14.017,73.51,459,0
818.00,20.74,69.33,33.71,881.11,11.401,1.517,3.075,-35.06,-10.90,16.61,13.247,72.48,457,0
819.00,20.51,68.92,33.66,880.65,8.716,0.714,2.687,50.84,-16.16,14.12,11.446,73.64,459,0
820.00,20.37,68.67,33.53,879.96,10.978,1.287,3.205,103.43,-18.96,31.18,13.421,163.31,457,0
821.00,20.44,68.79,33.49,879.51,10.789,0.069,1.196,130.96,15.15,29.59,12.054,163.68,455,0
822.00,20.44,68.79,33.59,879.14,9.385,-0.795,2.563,122.51,-2.45,21.17,12.322,140.43,458,0
823.00,20.44,68.79,33.51,878.59,11.120,-0.020,3.104,101.91,-7.37,12.28,13.779,113.82,458,0
824.00,20.30,68.54,33.51,877.78,11.476,0.930,2.936,119.25,-10.76,36.07,13.418,146.14,458,0
825.00,20.34,68.61,33.02,877.08,11.094,0.045,1.725,85.65,15.18,25.91,12.671,105.66,457,0
826.00,20.36,68.65,33.06,876.39,8.803,-0.121,2.030,91.34,-1.56,18.17,10.134,102.58,457,0
827.00,20.31,68.56,32.73,875.77,9.731,-0.389,1.650,82.90,13.23,16.91,11.516,98.44,457,0
828.00,20.16,68.29,32.91,875.31,11.829,-1.428,3.267,84.02,0.91,-1.95,13.297,100.64,459,0
829.00,19.93,67.87,32.77,874.35,10.172,0.645,3.282,86.06,-15.58,22.29,11.452,120.21,457,0
830.00,20.05,68.09,32.70,873.74,9.846,-0.238,1.757,90.48,10.24,10.14,11.893,108.82,458,0
831.00,19.89,67.80,32.53,873.06,11.859,0.053,4.037,82.48,-26.54,17.75,13.707,118.64,457,0
832.00,19.91,67.84,32.43,872.42,11.850,0.551,1.874,126.61,13.44,35.00,13.262,155.82,456,0
833.00,19.85,67.73,32.42,871.55,10.121,-0.362,3.066,117.06,-13.67,22.19,11.911,130.22,458,0
834.00,19.83,67.69,32.23,871.06,10.427,0.009,1.651,112.62,15.58,26.80,11.844,139.59,458,0
835.00,19.72,67.50,31.74,870.55,10.789,-0.520,3.533,104.45,-12.68,19.77,12.794,123.10,458,0
836.00,19.67,67.41,31.24,869.74,11.894,0.635,2.086,134.36,12.87,37.16,12.877,162.18,458,0
837.00,19.73,67.51,30.96,869.06,10.404,-0.584,3.038,132.50,-8.37,25.90,11.654,145.46,457,0
838.00,19.90,67.82,30.59,868.33,9.944,0.080,1.867,111.24,14.78,26.80,11.009,141.91,450,0
839.00,19.79,67.62,30.47,867.73,9.340,-0.359,2.858,98.61,-9.24,13.10,10.904,105.79,457,0
840.00,19.73,67.51,30.18,867.14,11.514,0.553,2.004,111.59,14.86,22.89,13.441,130.53,459,0
841.00,19.66,67.39,30.16,866.54,11.674,-1.434,2.944,113.52,-0.65,3.02,13.189,126.92,457,0
842.00,19.50,67.10,30.07,865.69,9.401,0.392,2.675,113.44,-7.68,28.33,11.901,131.31,459,0
843.00,19.59,67.26,29.86,865.08,9.261,-0.127,2.605,107.01,-16.23,25.74,12.183,128.83,456,0
844.00,19.51,67.12,29.89,864.55,9.523,0.958,2.071,131.90,9.69,45.23,11.647,163.57,457,0
845.00,19.54,67.17,30.26,864.08,10.017,-0.721,1.794,122.69,14.69,28.73,12.542,151.93,458,0
846.00,19.47,67.05,27.43,863.48,11.281,-0.441,3.111,106.90,-3.05,7.41,12.740,123.77,458,0
847.00,19.54,67.17,29.68,862.88,9.872,0.048,2.373,85.41,-0.91,18.13,11.052,99.22,458,0
848.00,19.54,67.17,29.59,862.28,10.598,-0.220,2.933,85.14,-11.76,12.48,11.717,96.12,458,0
849.00,19.38,66.88,29.42,861.47,11.153,1.107,2.884,109.88,-2.75,38.65,12.201,143.49,456,0
850.00,19.45,67.01,29.43,860.81,9.811,-0.225,1.656,106.56,11.99,16.26,11.040,115.23,458,0
851.00,19.49,67.08,29.43,860.28,8.227,-0.268,1.858,112.37,4.80,15.78,10.551,119.30,458,0
852.00,19.34,66.81,29.62,859.99,11.243,-1.074,3.158,99.14,-8.69,-0.37,12.986,119.96,457,0
853.00,19.12,66.42,29.57,859.10,11.291,0.255,4.060,93.77,-16.86,19.66,13.645,127.72,458,0
854.00,19.17,66.51,29.25,858.53,10.056,0.758,2.236,132.26,-1.29,35.27,11.688,159.68,456,0
855.00,19.28,66.70,28.76,858.02,9.027,-0.083,1.545,93.43,10.44,21.11,9.969,113.94,458,0
856.00,19.40,66.92,28.32,857.35,11.855,-0.808,1.843,56.67,17.31,2.94,12.919,73.02,458,0
857.00,19.38,66.88,28.46,856.62,11.924,-1.193,2.120,63.24,16.94,-5.00,12.965,75.98,458,0
858.00,19.29,66.72,28.33,855.80,9.232,-0.632,2.270,66.33,-1.18,1.79,11.136,76.42,457,0
859.00,19.27,66.69,27.91,855.18,9.850,-0.718,2.291,73.80,7.91,0.10,11.582,81.93,458,0
860.00,19.00,66.20,27.56,854.72,10.556,-1.635,2.964,8.47,-1.29,-15.20,12.094,56.54,457,0
861.00,19.00,66.20,28.31,854.16,11.198,-1.189,1.792,-83.37,3.64,-31.26,13.043,108.74,457,0
862.00,19.09,66.36,27.62,853.50,9.551,0.376,1.809,-89.06,8.12,-16.30,10.731,97.03,458,0
863.00,19.08,66.34,27.27,852.85,10.771,-0.388,2.807,-78.39,-6.27,-29.94,12.793,95.75,457,0
864.00,19.07,66.33,27.15,852.25,12.328,-1.083,1.728,-53.90,19.39,-32.91,13.107,84.82,458,0
865.00,19.06,66.31,27.32,851.44,9.712,0.451,1.432,-76.37,13.53,-12.85,11.737,85.83,457,0
866.00,19.03,66.25,26.89,850.91,8.791,-0.227,2.321,-77.62,-0.07,-28.77,10.933,89.21,456,0
867.00,19.01,66.22,27.13,850.46,10.645,-1.196,1.687,-56.07,8.92,-26.25,13.111,84.78,457,0
868.00,19.06,66.31,27.85,849.79,11.370,-0.620,1.148,-55.09,18.78,-26.05,12.390,111.25,458,0
869.00,19.09,66.36,27.30,849.22,10.196,0.614,2.042,-88.30,5.47,-13.06,11.963,109.91,458,0
870.00,19.14,66.45,26.58,848.51,10.326,-0.449,2.420,-65.69,0.20,-28.95,11.675,75.93,458,0
871.00,19.24,66.63,26.70,848.00,11.694,-0.738,1.486,-47.82,23.61,-10.27,13.033,72.83,456,0
872.00,19.16,66.49,26.34,847.30,10.633,0.675,1.477,-80.08,15.12,-1.24,12.844,89.87,457,0
873.00,19.13,66.43,25.83,846.74,8.958,0.261,1.879,-76.12,13.50,-11.72,11.327,83.02,458,0
874.00,19.06,66.31,25.49,846.16,11.436,0.505,1.672,-68.32,25.76,-13.52,13.666,79.62,458,0
875.00,19.02,66.24,24.90,845.50,12.800,1.036,1.430,-14.40,22.43,6.12,14.205,57.55,458,0
876.00,19.04,66.27,24.46,844.81,10.399,-0.258,1.489,48.78,6.18,0.91,11.549,65.60,458,0
877.00,19.07,66.33,23.89,844.05,8.024,-0.032,1.941,80.92,-5.61,13.74,9.542,92.55,456,0
878.00,19.03,66.25,23.46,843.62,10.203,-0.091,1.442,61.95,18.96,6.95,12.569,75.36,458,0
879.00,19.08,66.34,24.08,843.03,12.623,-1.483,2.130,60.72,9.09,-2.59,13.843,89.84,458,0
880.00,18.78,65.80,23.03,842.30,10.357,-0.937,3.123,51.37,-2.87,-0.27,12.345,80.22,458,0
881.00,18.86,65.95,21.83,841.65,8.444,0.084,2.032,41.53,-2.62,7.23,9.715,51.20,458,0
882.00,18.88,65.98,21.07,841.04,11.094,-0.265,1.757,22.79,19.49,0.93,13.169,42.23,458,0
883.00,18.95,66.11,21.08,840.29,13.352,-1.424,1.799,16.13,16.63,-24.57,15.210,40.99,450,0
884.00,18.88,65.98,19.73,839.55,9.628,-0.839,2.317,42.20,-8.50,-2.28,11.705,57.08,457,0
885.00,18.84,65.91,17.79,838.93,9.291,0.368,1.797,31.04,9.22,24.54,10.951,52.04,458,0
886.00,18.84,65.91,16.24,838.40,11.981,0.047,1.089,15.84,26.89,11.96,14.521,47.03,458,0
887.00,18.91,66.04,15.35,837.80,12.329,-0.157,1.089,-89.03,22.89,-33.25,13.606,146.03,458,0
888.00,18.93,66.07,13.79,837.15,10.284,1.131,2.048,-127.32,16.16,-10.41,13.185,142.49,457,0
889.00,19.10,66.38,12.60,836.73,9.170,0.497,2.302,-96.06,6.68,-7.77,12.622,128.36,456,0
890.00,19.28,66.70,11.87,836.00,12.695,1.436,2.874,-15.68,0.83,24.57,15.411,76.44,458,0
891.00,19.22,66.60,11.01,835.24,11.951,1.515,2.559,-62.36,7.34,7.70,14.363,89.42,458,0
892.00,19.14,66.45,10.70,834.67,8.578,0.599,2.000,-37.81,2.29,-0.59,11.243,73.97,459,0
893.00,19.09,66.36,11.19,834.03,10.787,0.525,1.713,-41.26,21.04,5.40,12.542,54.61,458,0
894.00,19.08,66.34,11.60,833.44,11.734,0.227,1.016,7.47,22.89,3.12,12.652,37.74,456,0
895.00,19.11,66.40,12.92,832.88,10.414,-0.766,1.161,-14.36,7.39,-8.24,11.208,21.34,457,0
896.00,19.12,66.42,14.13,832.06,10.079,-0.737,1.905,-2.52,-3.40,-10.45,11.227,19.96,458,0
897.00,19.01,66.22,14.15,831.76,8.964,-0.795,2.431,-7.77,-2.48,-4.27,10.963,23.83,457,0
898.00,18.92,66.06,14.10,831.29,10.401,-0.741,2.848,-26.15,-5.24,-18.72,12.497,39.39,459,0
899.00,18.83,65.89,14.36,830.60,10.386,-0.779,2.802,-43.17,-7.90,-23.10,12.227,57.95,456,0
900.00,18.79,65.82,14.86,829.98,10.826,-0.668,2.852,-56.56,-12.37,-21.23,11.815,63.57,456,0
901.00,18.68,65.62,15.51,829.35,11.618,-0.719,3.401,-38.86,-23.34,-14.29,12.732,60.31,458,0
902.00,18.69,65.64,15.98,828.52,9.910,-0.558,3.133,-18.82,-17.46,-13.57,11.687,38.96,459,0
903.00,18.73,65.71,16.40,827.81,9.671,0.320,2.656,-33.19,-1.03,5.11,12.275,46.01,458,0
904.00,18.72,65.70,16.53,827.12,12.997,1.558,2.767,19.79,4.51,39.18,14.884,66.86,458,0
905.00,18.90,66.02,16.76,826.21,9.819,1.283,2.140,-69.47,-0.55,10.68,12.362,95.51,457,0
906.00,19.24,66.63,17.45,825.99,9.243,0.381,1.894,-62.57,14.26,-12.56,11.997,74.60,456,0
907.00,19.30,66.74,18.16,825.31,12.586,1.700,2.412,-89.18,13.88,7.37,14.323,131.04,458,0
908.00,18.94,66.09,18.87,824.56,11.712,1.976,3.315,18.25,-12.81,24.82,14.628,124.39,458,0
909.00,19.00,66.20,19.05,824.06,8.944,0.077,1.674,80.14,2.55,19.44,9.928,96.37,458,0
910.00,18.99,66.18,19.44,823.40,10.011,0.538,2.844,92.58,-15.37,31.18,11.488,140.38,457,0
911.00,18.96,66.13,19.90,822.82,13.017,0.099,1.651,117.54,22.62,33.37,15.289,148.01,456,0
912.00,18.98,66.16,20.04,822.26,10.446,-0.779,3.093,112.22,-7.07,15.07,13.515,129.49,458,0
913.00,19.23,66.61,20.21,821.61,9.902,0.062,1.925,105.22,14.68,23.02,11.450,128.50,458,0
914.00,19.05,66.29,20.43,820.97,11.842,-0.796,3.673,90.34,-17.23,5.46,14.511,103.70,458,0
915.00,18.89,66.00,20.54,820.34,10.984,1.180,2.599,127.24,0.79,42.92,12.988,164.43,458,0
916.00,18.94,66.09,20.72,819.76,9.335,-0.602,2.504,135.54,-1.79,27.69,10.942,147.13,458,0
917.00,18.90,66.02,20.79,819.22,9.689,0.278,1.751,124.27,12.69,32.93,11.097,144.76,455,0
918.00,18.86,65.95,20.91,818.75,12.212,-1.043,3.399,114.13,-6.74,13.25,13.780,132.44,458,0
919.00,18.79,65.82,20.96,818.02,11.378,0.880,2.674,114.27,4.91,38.90,13.475,143.25,458,0
920.00,18.87,65.97,20.95,817.37,9.494,-0.491,2.189,94.77,-1.97,7.47,12.812,105.61,459,0
921.00,18.91,66.04,20.94,816.71,10.421,0.597,2.282,76.84,5.41,28.35,13.401,93.02,457,0
922.00,18.95,66.11,21.11,816.11,12.036,-0.857,1.459,64.35,17.83,1.64,13.840,77.31,458,0
923.00,18.80,65.84,21.26,815.45,11.062,-1.153,3.131,63.47,-18.62,3.94,13.252,82.85,456,0
924.00,18.72,65.70,21.18,814.67,8.222,0.133,2.250,49.03,-10.03,11.69,9.644,60.58,458,0
925.00,18.80,65.84,21.22,814.09,9.901,-0.654,1.910,42.42,0.36,-13.27,11.805,61.37,458,0
926.00,18.73,65.71,21.99,813.49,13.316,-1.953,2.806,-21.40,5.38,-31.38,15.281,102.89,457,0
927.00,18.79,65.82,22.71,812.91,11.258,-0.859,1.440,-66.48,13.15,-23.67,12.823,86.91,458,0
928.00,18.72,65.70,22.24,812.20,8.979,0.053,1.958,-76.59,-4.51,-16.29,10.124,88.89,450,0
929.00,18.81,65.86,21.63,811.66,9.150,-0.549,1.741,-69.36,-6.06,-33.19,11.822,84.08,457,0
930.00,19.00,66.20,21.60,811.07,11.061,0.220,1.532,-85.12,10.83,-14.71,13.857,105.75,458,0
931.00,18.87,65.97,21.52,810.55,11.815,1.045,3.441,-92.96,-19.23,-6.78,14.332,124.55,457,0
932.00,18.73,65.71,21.41,809.86,9.313,-0.232,2.659,-65.90,-11.34,-18.26,11.624,77.80,459,0
933.00,18.69,65.64,21.35,809.22,10.011,0.435,2.052,-66.28,7.16,2.10,12.256,79.17,457,0
934.00,18.66,65.59,21.42,808.54,11.905,1.396,3.399,-33.07,-8.62,18.12,13.694,84.15,456,0
935.00,18.62,65.52,21.47,808.07,9.561,1.131,1.960,80.71,3.20,26.06,11.821,112.04,457,0
936.00,18.71,65.68,21.44,807.48,9.835,0.431,1.874,36.50,-6.06,32.16,12.798,64.56,459,0
937.00,18.74,65.73,21.50,806.92,9.826,0.247,2.060,0.27,7.43,9.63,11.929,34.81,459,0
938.00,18.71,65.68,21.28,806.38,10.367,-0.283,2.595,-26.73,-10.78,-11.99,12.232,41.60,458,0
939.00,18.45,65.21,21.10,805.44,11.488,-1.269,2.927,-56.27,-8.20,-30.69,13.269,108.81,458,0
940.00,18.51,65.32,21.26,805.06,10.734,-0.660,1.629,-82.41,7.15,-28.53,12.545,109.08,455,0
941.00,18.53,65.35,21.16,804.46,8.793,0.348,1.922,-83.76,3.36,-10.40,9.825,95.87,458,0
942.00,18.45,65.21,21.05,803.92,9.400,-0.739,2.238,-89.25,-2.42,-35.67,11.005,107.32,457,0
943.00,18.53,65.35,22.00,803.47,10.913,0.155,1.359,-96.25,12.91,-12.32,12.897,122.48,458,0
944.00,18.52,65.34,21.74,803.00,11.119,0.940,2.877,-86.63,-8.03,-12.94,12.492,111.92,456,0
945.00,18.43,65.17,21.49,802.30,10.652,0.149,2.727,-35.45,-4.52,-16.16,11.889,54.01,457,0
946.00,18.40,65.12,21.38,801.65,9.388,0.089,2.051,-32.40,0.28,0.19,10.296,51.46,458,0
947.00,18.43,65.17,21.71,801.10,10.181,0.766,2.446,-55.79,-10.13,5.47,11.179,67.18,458,0
948.00,18.63,65.53,21.10,800.36,11.106,1.148,2.313,0.77,1.40,23.01,12.328,32.91,457,0
949.00,18.90,66.02,21.56,799.89,10.753,0.648,1.573,-16.97,22.63,3.56,11.803,31.95,458,0
950.00,18.80,65.84,21.67,799.27,12.053,-0.706,1.467,1.36,21.21,-16.91,12.657,35.65,458,0
951.00,18.68,65.62,22.10,798.60,11.925,-1.354,2.720,30.15,-7.92,-20.02,13.054,48.82,455,0
952.00,18.40,65.12,21.83,797.84,10.128,-0.089,3.331,25.60,-23.45,6.67,12.153,52.08,459,0
953.00,18.37,65.07,21.92,797.37,9.399,0.819,1.824,54.93,8.61,24.70,12.481,79.95,457,0
954.00,18.44,65.19,22.19,796.90,12.111,-1.378,1.839,65.85,9.57,-9.33,14.223,92.35,458,0
955.00,18.17,64.71,22.16,796.44,11.880,-1.564,3.799,11.06,-15.37,-12.50,14.075,81.56,458,0
956.00,18.12,64.62,21.91,795.66,9.036,-0.280,2.917,-8.03,-8.11,-2.68,11.777,17.98,458,0
957.00,18.13,64.63,21.96,795.13,9.242,0.567,2.377,5.55,-3.96,10.91,11.125,36.65,456,0
958.00,18.19,64.74,22.02,794.57,11.982,1.283,2.100,-21.94,12.88,17.22,13.858,64.61,457,0
959.00,18.24,64.83,21.79,793.91,11.235,1.325,2.717,-96.54,7.26,-4.37,13.467,120.01,458,0
960.00,18.11,64.60,21.91,793.38,10.286,0.616,2.739,-40.68,0.68,-2.78,11.133,71.36,459,0
961.00,18.14,64.65,22.18,792.66,10.155,0.571,2.235,-43.94,4.77,5.94,11.124,70.31,459,0
962.00,18.20,64.76,22.55,792.05,8.991,0.621,2.176,-77.09,5.29,-10.36,10.228,87.45,458,0
963.00,18.27,64.89,22.34,791.63,8.888,0.697,2.257,-23.00,-3.53,-0.47,10.647,54.82,456,0
964.00,18.32,64.98,22.22,791.09,11.327,0.886,2.331,1.30,0.35,16.37,13.452,34.73,457,0
965.00,18.37,65.07,22.15,790.50,11.424,0.793,2.309,-58.60,10.47,-2.63,12.852,83.85,458,0
966.00,18.33,64.99,22.23,789.86,10.462,0.621,2.541,-107.16,5.34,-3.98,11.426,117.51,459,0
967.00,18.24,64.83,22.13,789.17,9.375,0.517,2.567,-71.90,-8.87,-4.57,11.082,106.37,458,0
968.00,18.20,64.76,22.09,788.52,11.628,0.935,2.646,-35.36,11.92,14.78,14.687,59.73,456,0
969.00,18.16,64.69,22.32,787.85,11.269,1.678,2.792,-24.12,-6.68,26.00,14.270,77.37,458,0
970.00,18.16,64.69,22.36,787.30,8.751,0.422,1.714,17.68,-3.73,7.79,10.276,55.49,459,0
971.00,18.20,64.76,22.55,786.57,11.710,-0.992,2.460,20.89,9.73,-32.46,14.046,53.54,458,0
972.00,18.00,64.40,23.30,786.22,11.077,-1.683,2.240,-78.42,0.31,-41.13,14.039,129.59,457,0
973.00,18.12,64.62,23.48,785.74,9.249,-0.432,1.441,-93.55,5.61,-25.42,10.785,102.26,459,0
974.00,18.15,64.67,23.02,785.19,12.282,0.051,1.767,-100.12,23.14,-36.02,14.169,117.68,449,0
975.00,18.10,64.58,22.67,784.55,12.172,1.220,2.103,-95.79,18.37,-9.48,14.065,115.66,458,0
976.00,18.06,64.51,22.62,783.85,8.855,0.462,2.290,-69.55,8.75,-12.35,10.969,116.84,457,0
977.00,18.02,64.44,22.34,783.30,8.952,-0.032,1.953,-63.52,24.40,-23.14,9.697,74.23,458,0
978.00,17.97,64.35,22.23,782.82,9.652,0.114,2.147,-65.47,9.38,-19.02,11.133,77.42,458,0
979.00,17.96,64.33,22.18,782.20,10.288,-0.403,2.580,-70.17,-0.63,-32.32,12.469,86.34,458,0
980.00,17.93,64.27,22.59,781.63,11.980,-0.893,2.233,-55.71,14.13,-33.70,13.323,87.31,456,0
981.00,17.97,64.35,22.80,781.05,9.880,-0.409,1.924,-21.27,3.48,-15.73,11.231,43.08,458,0
982.00,17.96,64.33,22.58,780.44,11.156,-0.150,3.182,-5.31,-26.23,-5.11,13.816,40.20,458,0
983.00,17.72,63.90,22.60,779.70,10.948,0.991,3.661,41.30,-22.47,19.31,13.023,113.42,457,0
984.00,17.74,63.93,22.42,779.22,9.147,0.159,1.568,95.83,4.43,23.00,10.861,119.04,459,0
985.00,17.67,63.81,22.38,778.69,9.785,-0.085,3.111,92.92,-15.93,31.02,11.630,110.69,455,0
986.00,17.66,63.79,22.62,778.35,9.797,0.774,1.889,126.04,8.75,39.19,11.195,150.25,459,0
987.00,17.74,63.93,22.59,777.76,11.439,-0.705,2.529,125.35,9.62,24.21,13.032,147.77,458,0
988.00,17.72,63.90,22.46,777.18,9.920,-0.016,2.499,109.54,-0.54,23.62,11.090,120.72,458,0
989.00,17.74,63.93,22.29,776.58,11.013,-0.308,2.784,96.91,-8.91,10.95,12.875,106.82,458,0
990.00,17.59,63.66,22.43,775.71,11.148,0.769,3.269,109.04,-19.72,41.46,12.594,144.07,458,0
991.00,17.64,63.75,22.51,775.22,8.492,0.286,1.660,91.92,6.39,35.50,10.748,127.30,456,0
992.00,17.58,63.64,22.46,774.71,9.415,0.538,2.099,56.83,-4.55,30.79,11.848,82.71,458,0
993.00,17.69,63.84,22.39,774.14,13.264,1.490,2.728,-24.27,3.59,23.95,14.688,85.01,458,0
994.00,17.55,63.59,22.38,773.34,11.557,1.571,3.063,1.83,-5.55,18.64,13.589,84.95,458,0
995.00,17.54,63.57,22.56,772.88,8.371,0.205,1.820,28.38,7.01,6.26,9.542,62.13,458,0
996.00,17.54,63.57,22.49,772.43,8.688,-0.226,2.418,7.17,-14.77,-4.65,12.155,28.07,458,0
997.00,17.24,63.03,22.49,772.18,10.559,-0.459,3.917,4.62,-22.41,-8.06,12.241,64.49,456,0
998.00,17.11,62.80,22.60,771.50,10.723,0.660,3.366,79.45,-5.43,20.17,12.362,119.93,458,0
999.00,17.27,63.09,22.51,771.04,11.125,0.184,2.386,102.70,-4.23,16.33,11.896,122.43,458,0
1000.00,17.24,63.03,22.48,770.35,10.036,0.020,2.403,91.55,-1.07,21.30,11.868,102.18,457,0
1001.00,17.24,63.03,22.53,769.63,9.352,-0.150,2.333,110.28,-11.58,20.52,10.498,126.58,458,0
1002.00,17.22,63.00,22.59,769.05,10.121,0.241,2.929,131.22,-20.46,30.85,11.750,141.30,456,0
1003.00,17.18,62.92,22.50,768.35,10.648,0.633,2.279,112.14,2.05,46.96,11.705,147.06,459,0
1004.00,17.19,62.94,22.58,767.87,9.666,0.335,1.543,69.90,15.70,23.06,10.845,90.83,458,0
1005.00,17.19,62.94,22.58,767.36,9.982,0.455,1.401,22.01,10.24,15.16,11.329,51.98,458,0
1006.00,17.16,62.89,22.62,766.75,11.859,0.567,1.431,46.70,17.32,20.93,12.971,93.30,458,0
1007.00,17.19,62.94,22.97,766.20,11.544,-0.856,1.490,73.57,18.02,11.61,12.957,94.65,457,0
1008.00,17.18,62.92,23.20,765.63,9.236,-0.617,1.817,68.96,4.59,12.19,10.454,74.17,456,0
1009.00,17.19,62.94,23.30,764.98,9.207,-0.670,2.092,69.84,0.02,1.93,10.434,72.80,458,0
1010.00,16.91,62.44,23.75,764.50,10.601,-1.223,2.445,-7.81,-2.44,-20.92,12.041,73.38,458,0
1011.00,17.07,62.73,24.59,764.22,10.818,-0.522,1.649,-57.74,10.94,-15.86,11.780,75.48,457,0
1012.00,17.10,62.78,24.03,763.61,10.397,0.636,2.147,-81.41,1.33,-8.34,11.271,89.94,459,0
1013.00,17.03,62.65,23.55,763.15,10.791,0.053,2.996,-49.26,-10.63,-12.15,11.940,69.94,457,0
1014.00,16.87,62.37,23.36,762.35,9.990,-0.772,2.308,-53.11,-2.07,-22.92,11.000,66.47,456,0
1015.00,16.97,62.55,23.74,761.93,10.116,-0.399,1.531,-34.37,13.11,-15.17,11.690,46.73,457,0
1016.00,17.00,62.60,23.42,761.31,11.443,0.786,2.018,-48.41,6.34,4.45,12.412,65.39,459,0
1017.00,16.90,62.42,23.34,760.70,11.005,0.892,3.154,-25.85,-15.71,6.60,12.401,68.03,457,0
1018.00,16.75,62.15,23.14,759.99,9.968,0.629,2.921,33.57,-14.24,14.16,11.201,50.47,459,0
1019.00,16.71,62.08,23.00,759.46,8.899,0.427,2.573,55.50,-8.46,10.43,11.716,63.93,451,0
1020.00,16.65,61.97,22.99,758.92,9.893,0.992,2.711,89.20,-3.05,30.86,12.973,133.39,457,0
1021.00,16.77,62.19,23.01,758.50,11.047,0.362,1.480,107.90,16.15,29.84,12.662,136.27,458,0
1022.00,16.82,62.28,23.64,757.88,10.380,-0.870,2.102,107.53,8.82,12.57,12.568,114.45,458,0
1023.00,16.66,61.99,23.37,757.58,9.953,-0.667,2.747,82.04,-2.76,2.12,11.549,103.61,457,0
1024.00,16.44,61.59,23.21,756.98,11.853,-0.568,3.542,65.74,-17.43,-2.08,13.019,73.00,459,0
1025.00,16.48,61.66,22.92,756.31,10.579,-0.130,3.397,36.78,-16.21,0.86,12.686,59.51,456,0
1026.00,16.75,62.15,22.79,755.78,9.152,-0.368,2.554,10.59,-0.63,-6.78,10.263,33.15,459,0
1027.00,16.66,61.99,22.69,755.02,11.783,-0.926,2.500,-15.75,20.32,-25.05,14.103,49.35,457,0
1028.00,16.68,62.02,22.97,754.26,10.697,-0.989,2.172,5.73,3.90,-15.04,13.204,41.48,458,0
1029.00,16.59,61.86,22.87,753.81,8.931,-0.154,2.249,14.57,-1.09,-6.11,10.956,29.15,458,0
1030.00,16.57,61.83,22.75,753.25,11.572,1.006,2.481,9.69,0.04,32.26,14.459,47.61,458,0
1031.00,16.67,62.01,22.41,752.54,12.814,1.834,3.073,-71.50,4.11,15.96,15.320,107.64,456,0
1032.00,16.81,62.26,22.39,752.01,9.427,1.112,1.842,25.80,6.16,19.97,12.226,53.28,458,0
1033.00,16.75,62.15,22.43,751.42,10.073,-0.437,1.806,22.34,8.49,-10.85,11.935,39.95,458,0
1034.00,16.47,61.65,22.42,751.06,11.829,-1.644,3.333,-4.46,-11.34,-27.92,13.421,73.31,457,0
1035.00,16.32,61.38,22.87,750.27,11.461,-1.558,2.177,-127.25,5.02,-46.79,13.273,166.72,458,0
1036.00,16.46,61.63,22.77,749.72,9.943,0.608,1.718,-161.92,15.69,-29.38,11.034,174.50,455,0
1037.00,16.43,61.57,22.23,749.40,10.255,0.909,3.322,-141.87,-7.02,-10.81,12.329,181.76,457,0
1038.00,16.28,61.30,22.10,748.88,12.492,-0.333,4.341,-91.96,-25.81,-12.73,14.291,108.20,458,0
1039.00,16.03,60.85,22.04,747.95,10.958,-1.309,2.977,-120.03,-15.89,-42.92,13.855,155.73,458,0
1040.00,16.27,61.29,22.00,747.52,9.348,-0.372,1.783,-115.29,3.19,-37.38,11.220,143.81,458,0
1041.00,16.36,61.45,22.26,747.00,11.356,-0.399,1.593,-93.19,14.29,-42.34,12.996,130.17,458,0
1042.00,16.34,61.41,22.16,746.31,10.503,1.135,1.908,-114.24,9.29,-21.58,12.848,132.58,456,0
1043.00,16.19,61.14,22.18,745.83,9.744,0.169,2.740,-73.07,-9.12,-28.17,10.662,106.53,458,0
1044.00,16.19,61.14,21.85,745.31,9.305,-0.040,2.141,-51.48,-2.61,-18.03,11.154,67.18,458,0
1045.00,16.22,61.20,21.98,744.71,10.431,0.524,2.655,-40.56,-9.71,7.82,11.707,57.73,457,0
1046.00,16.11,61.00,21.98,744.24,10.790,1.187,2.441,48.05,-3.87,26.57,11.924,84.32,459,0
1047.00,16.20,61.16,21.96,743.72,10.886,0.202,1.733,52.28,4.37,8.82,11.860,59.77,455,0
1048.00,16.23,61.21,22.05,742.88,10.663,-0.247,2.398,66.19,-8.00,13.31,11.650,87.36,458,0
1049.00,16.14,61.05,22.10,742.25,10.001,-0.004,2.381,78.03,1.92,20.46,10.706,97.33,458,0
1050.00,16.02,60.84,21.94,741.37,9.691,-0.109,2.087,36.06,-4.55,0.87,10.584,50.73,458,0
1051.00,15.96,60.73,21.69,740.73,9.840,0.001,2.208,36.84,-2.28,12.32,10.832,47.01,458,0
1052.00,15.89,60.60,21.77,739.94,9.704,-0.166,2.048,41.15,10.53,3.21,10.478,61.09,458,0
1053.00,15.99,60.78,21.75,739.25,9.319,-0.165,2.576,71.09,-15.17,2.97,10.431,83.62,456,0
1054.00,15.93,60.67,21.49,738.79,8.700,0.308,1.913,73.05,3.56,28.35,11.389,89.89,457,0
1055.00,15.97,60.75,21.65,738.40,11.051,-0.836,2.583,65.62,-1.58,-4.30,12.542,72.83,459,0
1056.00,15.70,60.26,21.42,737.56,11.586,0.509,3.988,71.58,-17.36,26.31,13.317,129.17,457,0
1057.00,15.79,60.42,21.16,737.01,11.127,0.300,1.967,129.28,14.94,24.46,12.263,152.53,459,0
1058.00,15.86,60.55,20.94,736.44,8.737,-0.253,2.284,129.00,-8.89,20.03,10.472,138.03,457,0
1059.00,15.89,60.60,20.72,736.04,10.633,-0.499,2.955,135.23,-8.48,6.98,14.397,139.51,456,0
1060.00,15.70,60.26,20.64,735.20,12.610,1.129,3.493,154.89,-6.80,50.47,14.174,198.94,458,0
1061.00,15.79,60.42,20.80,734.53,10.253,-0.733,2.256,180.19,11.50,35.03,13.033,189.52,457,0
1062.00,15.79,60.42,20.51,733.94,8.238,-0.062,2.495,186.04,-8.05,34.85,11.492,197.42,458,0
1063.00,15.75,60.35,20.64,733.45,10.321,0.401,2.332,189.99,12.52,55.03,12.251,214.02,458,0
1064.00,15.75,60.35,20.79,733.16,11.959,-1.339,3.591,179.61,1.29,20.44,13.256,200.24,450,0
1065.00,15.60,60.08,20.87,732.30,11.828,0.827,3.092,194.27,-4.14,52.59,12.985,224.40,458,0
1066.00,15.84,60.51,19.07,731.45,9.579,-0.660,2.517,185.84,17.15,32.81,11.400,198.76,458,0
1067.00,15.84,60.51,21.03,731.05,8.862,0.087,2.803,192.67,-1.01,31.90,10.554,200.72,459,0
1068.00,15.78,60.40,21.03,730.65,8.697,-0.224,1.873,168.18,5.70,39.77,11.373,191.86,457,0
1069.00,15.68,60.22,20.96,730.08,11.066,-0.025,3.316,158.77,-4.17,37.50,12.703,170.55,459,0
1070.00,15.68,60.22,21.04,729.57,10.879,0.056,2.306,137.96,8.51,30.66,12.213,170.27,456,0
1071.00,15.73,60.31,21.09,728.79,10.071,-0.333,2.332,123.48,8.31,17.12,11.597,129.72,458,0
1072.00,15.70,60.26,21.03,728.38,9.200,-0.230,2.643,127.03,-6.99,21.89,10.176,136.51,458,0
1073.00,15.61,60.10,21.08,727.69,9.415,0.583,2.700,142.78,-10.11,36.31,11.018,161.58,458,0
1074.00,15.65,60.17,21.27,727.16,11.875,-0.198,1.940,124.55,14.53,36.93,12.716,138.30,459,0
1075.00,15.69,60.24,21.11,726.60,9.729,-0.330,2.838,124.45,-7.24,21.66,11.333,136.46,455,0
1076.00,15.84,60.51,21.21,725.95,10.171,-0.294,2.106,112.73,11.41,13.47,11.839,131.17,459,0
1077.00,15.59,60.06,21.17,725.36,10.293,0.097,3.378,108.92,-13.12,25.89,12.188,135.55,456,0
1078.00,15.59,60.06,21.13,724.89,10.300,0.384,1.822,130.52,8.25,37.06,11.543,153.82,459,0
1079.00,15.60,60.08,21.42,724.34,9.627,-0.352,2.582,121.79,0.04,21.76,11.125,130.69,457,0
1080.00,15.56,60.01,21.24,723.83,10.917,0.057,2.170,108.00,11.71,23.39,12.217,125.14,459,0
1081.00,15.47,59.85,21.37,723.32,11.832,-0.966,3.265,95.23,-9.12,-1.78,13.367,109.06,455,0
1082.00,15.31,59.56,21.44,722.56,9.622,0.621,2.619,95.09,-4.23,25.91,11.347,114.44,458,0
1083.00,15.42,59.76,21.32,722.05,8.481,-0.386,1.850,84.37,-3.34,12.89,9.408,90.07,459,0
1084.00,15.29,59.52,21.31,721.64,9.538,0.209,3.075,82.53,-12.89,18.79,10.962,100.57,457,0
1085.00,15.29,59.52,21.28,721.22,11.007,0.629,2.046,114.48,6.70,37.54,12.186,137.52,459,0
1086.00,15.35,59.63,21.34,720.80,10.651,-0.567,2.565,107.79,-0.47,16.44,11.702,119.48,457,0
1087.00,15.27,59.49,21.37,720.22,10.950,0.412,2.392,92.36,9.51,30.54,11.917,109.07,457,0
1088.00,15.36,59.65,21.35,719.45,11.479,-0.828,2.194,83.56,11.23,-0.54,13.197,89.30,458,0
1089.00,15.17,59.31,21.38,718.96,10.183,-0.095,2.885,61.41,-4.38,14.27,11.211,77.05,457,0
1090.00,15.15,59.27,21.52,718.28,11.734,0.584,2.001,38.43,25.43,16.77,12.962,70.75,459,0
1091.00,15.18,59.32,21.50,717.54,10.712,-0.007,1.226,-5.00,24.51,5.50,11.801,37.63,457,0
1092.00,15.23,59.41,21.60,717.00,7.873,-0.296,1.615,3.17,-11.75,1.47,9.588,45.61,457,0
1093.00,15.06,59.11,21.43,716.55,13.675,-0.746,4.195,11.48,-38.90,-13.86,19.828,70.06,457,0
1094.00,14.91,58.84,21.46,715.79,9.367,-0.511,2.821,-27.47,-10.53,-20.32,11.591,49.95,459,0
1095.00,14.92,58.86,21.58,715.30,9.669,0.246,2.106,-41.34,4.76,6.27,11.878,64.84,457,0
1096.00,14.89,58.80,21.41,714.61,12.193,1.557,3.088,-23.81,-7.16,20.37,13.957,81.69,458,0
1097.00,14.91,58.84,21.37,714.13,11.617,1.187,1.792,49.38,17.44,19.93,13.438,89.76,458,0
1098.00,14.92,58.86,21.27,713.59,8.319,-0.104,1.378,61.58,11.38,9.56,11.102,66.67,457,0
1099.00,14.98,58.96,21.32,712.99,9.979,0.415,2.001,49.66,13.70,32.71,12.913,70.79,457,0
1100.00,14.96,58.93,21.32,712.54,13.746,0.988,1.710,43.14,22.65,27.25,15.262,103.97,459,0
1101.00,14.93,58.87,21.66,711.92,11.160,-0.719,1.283,57.38,18.56,15.78,12.693,112.24,457,0
1102.00,14.96,58.93,21.87,711.26,7.957,-0.216,1.565,37.71,18.29,8.75,9.830,48.30,458,0
1103.00,14.88,58.78,21.62,710.90,8.882,0.402,1.797,25.20,2.26,23.33,11.490,41.76,458,0
1104.00,14.92,58.86,21.67,710.53,12.363,1.116,2.088,-16.64,9.71,15.76,14.864,50.45,456,0
1105.00,14.89,58.80,21.63,709.86,11.838,1.177,2.809,-76.15,5.40,2.32,14.407,98.63,457,0
1106.00,14.78,58.60,21.54,709.39,9.076,0.137,2.217,-44.24,7.52,-21.29,11.024,55.17,458,0
1107.00,14.77,58.59,21.49,708.95,8.481,0.015,1.765,-30.97,3.01,-19.94,9.669,48.78,458,0
1108.00,14.79,58.62,21.36,708.49,10.360,0.482,2.115,-41.64,4.12,2.83,12.411,58.98,458,0
1109.00,14.74,58.53,21.54,707.99,11.730,0.884,3.058,-36.23,-12.59,2.47,13.174,67.10,451,0
1110.00,14.63,58.33,21.73,707.40,10.976,0.753,2.644,37.73,-7.75,13.85,12.225,55.08,458,0
1111.00,14.68,58.42,21.69,706.85,9.882,0.039,2.046,5.02,6.56,-6.67,10.872,26.48,457,0
1112.00,14.66,58.39,21.76,706.25,8.902,-0.328,1.798,6.29,16.80,-11.44,10.060,28.49,459,0
1113.00,14.58,58.24,21.82,705.77,9.016,-0.177,2.323,30.46,-3.27,-1.61,10.122,39.20,457,0
1114.00,14.49,58.08,21.87,705.34,10.861,0.861,2.543,53.61,-2.25,27.87,12.440,81.47,459,0
1115.00,14.55,58.19,21.73,704.79,12.478,0.299,1.517,60.02,20.50,18.28,13.300,90.49,456,0
1116.00,14.51,58.12,22.28,704.23,10.604,-0.957,2.347,74.33,1.79,3.30,12.488,82.47,457,0
1117.00,14.64,58.35,21.39,703.64,9.123,0.310,2.295,65.76,-2.37,22.81,10.947,74.94,458,0
1118.00,14.68,58.42,21.92,703.14,11.380,-0.099,1.577,43.63,25.65,9.91,12.609,57.33,458,0
1119.00,14.64,58.35,22.76,702.54,11.694,-1.286,2.232,45.05,6.82,-11.63,12.861,63.92,458,0
1120.00,14.29,57.72,22.42,702.05,10.256,-0.272,3.215,29.56,-15.93,7.10,12.050,44.02,457,0
1121.00,14.22,57.60,22.35,701.55,10.866,1.013,2.324,47.54,9.10,25.79,11.729,74.54,456,0
1122.00,14.33,57.79,22.23,700.93,11.274,-0.266,1.211,40.77,20.63,6.30,12.527,57.54,458,0
1123.00,14.32,57.78,22.74,700.41,11.261,-1.116,2.404,34.33,-6.65,-11.12,12.537,49.92,457,0
1124.00,14.18,57.52,22.36,699.93,10.079,-0.148,3.024,20.71,-16.49,4.55,11.865,37.39,458,0
1125.00,14.53,58.15,20.87,699.17,9.743,0.786,2.137,42.00,4.38,21.59,11.269,65.74,458,0
1126.00,14.60,58.28,22.21,698.89,10.362,-0.276,1.161,31.70,18.09,4.78,11.273,45.95,456,0
1127.00,14.54,58.17,22.58,698.43,11.370,-1.050,1.777,5.97,9.73,-16.02,12.239,26.85,457,0
1128.00,14.27,57.69,22.62,697.97,11.315,-0.967,2.887,13.97,-11.17,-5.58,12.601,33.72,458,0
1129.00,14.12,57.42,22.26,697.24,10.787,-0.213,3.266,-12.42,-19.01,-1.15,11.998,33.20,457,0
1130.00,13.98,57.16,22.30,696.60,9.737,0.537,2.824,0.82,-10.79,9.71,11.426,31.69,459,0
1131.00,14.00,57.20,22.26,696.12,9.629,0.604,1.827,13.15,14.49,2.55,10.664,36.24,458,0
1132.00,14.02,57.24,22.07,695.75,9.060,0.295,1.111,4.45,11.76,2.02,10.457,33.16,456,0
1133.00,14.12,57.42,22.26,695.30,10.715,-0.269,1.503,-5.70,12.74,1.84,12.217,49.57,458,0
1134.00,14.13,57.43,22.21,694.85,10.638,-0.003,1.877,-66.00,9.35,-12.80,11.774,73.45,457,0
1135.00,13.99,57.18,22.14,694.34,11.297,-0.005,2.101,-69.66,15.39,-22.07,12.344,76.19,457,0
1136.00,13.86,56.95,22.25,693.67,11.082,0.474,1.731,-78.24,23.31,-8.86,12.317,95.01,458,0
1137.00,13.95,57.11,22.04,693.16,9.580,0.549,2.001,-92.09,5.80,-14.13,10.682,110.52,458,0
1138.00,13.94,57.09,22.11,692.47,11.727,0.757,2.965,-126.92,5.57,-4.89,13.672,144.44,456,0
1139.00,13.69,56.64,19.43,691.91,10.993,0.710,3.654,-63.44,-23.05,-1.73,13.058,98.83,459,0
1140.00,13.84,56.91,21.86,691.42,8.661,0.378,2.357,-21.10,-1.32,-0.40,9.912,48.66,458,0
1141.00,14.24,57.63,22.15,691.00,10.570,0.769,2.186,-40.73,8.11,9.17,12.939,82.13,458,0
1142.00,14.08,57.34,21.89,690.29,12.065,1.585,3.256,-56.83,-5.70,12.87,13.861,103.58,458,0
1143.00,13.90,57.02,22.05,689.85,9.851,0.982,1.823,37.29,0.78,19.11,11.643,69.26,456,0
1144.00,13.96,57.13,21.99,689.33,9.004,-0.234,1.501,14.26,7.96,-1.75,10.166,21.43,458,0
1145.00,13.85,56.93,22.24,688.96,10.967,-1.094,2.566,13.69,-4.05,-20.45,12.832,43.56,457,0
1146.00,13.51,56.32,23.05,688.48,11.233,-1.312,2.428,-103.36,-4.63,-40.35,12.455,145.32,457,0
1147.00,13.70,56.66,23.67,687.90,11.051,0.011,1.899,-134.66,8.60,-39.31,11.650,154.24,459,0
1148.00,13.69,56.64,23.19,687.36,10.879,0.428,2.807,-155.12,9.04,-28.56,11.715,165.07,458,0
1149.00,13.60,56.48,22.93,686.69,8.463,-0.150,2.381,-136.74,2.68,-23.24,10.384,151.89,456,0
1150.00,13.69,56.64,22.62,686.26,9.058,-0.153,2.010,-105.35,6.51,-16.79,11.626,121.67,457,0
1151.00,13.72,56.70,22.45,685.80,11.051,-0.083,2.056,-84.70,12.61,-15.94,12.105,92.48,458,0
1152.00,13.59,56.46,22.39,685.10,11.688,0.743,2.121,-84.18,17.08,-3.05,12.950,94.74,457,0
1153.00,13.59,56.46,22.46,684.47,9.651,0.405,2.331,-110.37,3.19,-11.53,11.762,115.75,459,0
1154.00,13.52,56.34,22.38,683.92,9.269,0.272,2.513,-118.40,-9.05,-12.09,10.958,125.59,458,0
1155.00,13.29,55.92,22.43,683.44,10.229,0.136,3.400,-91.70,-18.15,-14.56,11.486,109.86,450,0
1156.00,13.03,55.45,22.48,682.85,10.368,-1.214,3.249,-110.55,-17.39,-27.27,11.409,161.04,457,0
1157.00,13.01,55.42,22.88,682.50,9.420,-0.346,1.647,-162.79,3.86,-33.08,11.261,176.74,458,0
1158.00,13.23,55.81,22.71,682.08,10.168,0.424,2.833,-162.56,-1.99,-30.45,12.616,177.74,457,0
1159.00,13.17,55.71,22.51,681.45,11.078,-0.443,3.077,-143.54,-10.57,-33.94,13.126,152.22,459,0
1160.00,13.10,55.58,22.70,680.87,11.732,-0.652,2.205,-127.10,2.56,-43.43,13.344,152.86,455,0
1161.00,13.08,55.54,22.64,680.17,10.405,0.473,1.861,-115.02,18.44,-19.84,11.992,124.73,458,0
1162.00,13.13,55.63,22.75,679.61,8.218,0.101,2.069,-133.34,-1.77,-23.19,9.746,147.03,458,0
1163.00,13.02,55.44,22.56,679.21,10.899,0.531,3.101,-136.84,-8.03,-13.51,14.110,156.56,458,0
1164.00,12.64,54.75,22.56,678.20,13.065,-1.436,3.966,-124.04,-22.68,-43.34,15.490,184.86,457,0
1165.00,12.74,54.93,23.00,677.91,9.606,0.027,1.761,-165.73,9.21,-36.02,11.854,177.42,456,0
1166.00,12.95,55.31,22.85,677.41,9.645,0.053,2.148,-155.46,20.29,-33.61,13.456,176.91,457,0
1167.00,12.85,55.13,22.87,676.93,13.667,1.355,4.083,-114.60,-9.56,3.81,15.921,159.07,458,0
1168.00,12.46,54.43,22.84,676.06,9.209,-0.653,2.971,-72.58,-4.61,-18.21,11.112,91.57,458,0
1169.00,12.59,54.66,22.87,675.77,10.449,0.122,1.659,-77.83,12.04,-6.62,12.541,88.94,457,0
1170.00,12.56,54.61,22.67,675.08,12.125,1.497,3.278,-63.59,-8.17,14.70,14.047,102.68,458,0
1171.00,12.28,54.10,22.82,674.56,9.635,1.102,2.667,79.81,-6.64,28.42,11.658,126.47,455,0
1172.00,12.45,54.41,22.67,674.13,10.405,0.748,2.072,75.44,-4.51,33.24,12.486,113.44,458,0
1173.00,12.51,54.52,23.01,673.58,12.236,1.198,1.751,30.07,11.12,29.04,13.850,54.07,458,0
1174.00,12.50,54.50,23.22,672.96,10.376,0.653,1.386,45.03,10.32,19.09,12.253,60.39,458,0
1175.00,12.34,54.21,23.23,672.57,7.694,0.217,1.306,47.49,-4.74,20.58,8.901,59.15,459,0
1176.00,12.33,54.19,23.25,672.04,12.912,0.114,2.157,44.37,19.64,28.63,17.364,70.18,458,0
1177.00,12.39,54.30,23.16,671.55,10.163,-0.427,2.065,60.34,2.21,1.70,14.642,67.45,456,0
1178.00,12.31,54.16,23.37,671.04,9.981,0.237,2.166,53.02,5.32,19.03,12.998,72.74,457,0
1179.00,12.19,53.94,23.30,670.48,10.880,0.478,1.499,10.10,15.91,9.67,13.067,40.90,460,0
1180.00,12.18,53.92,23.41,669.97,11.245,0.391,1.380,-32.94,16.54,3.33,13.188,49.96,457,0
1181.00,12.14,53.85,23.35,669.38,9.879,0.389,1.541,-47.75,8.57,-5.49,11.266,55.38,459,0
1182.00,12.06,53.71,23.10,668.89,9.962,-0.062,1.641,-46.61,18.14,-14.88,12.076,54.95,455,0
1183.00,12.14,53.85,23.45,668.36,12.529,-0.202,1.431,-51.54,29.51,-16.42,14.023,98.73,458,0
1184.00,12.06,53.71,23.27,667.78,10.906,0.744,1.362,-77.47,22.00,-15.00,12.501,100.08,457,0
1185.00,12.06,53.71,23.41,667.28,8.970,0.432,1.389,-54.37,10.45,-14.24,10.776,62.96,459,0
1186.00,11.99,53.58,23.38,666.80,10.759,0.547,1.418,-51.90,21.13,-7.27,12.238,63.78,458,0
1187.00,11.91,53.44,23.47,666.30,11.726,0.138,1.308,18.89,19.99,8.07,12.580,55.61,457,0
1188.00,11.99,53.58,23.94,665.78,11.183,-0.672,1.915,6.98,0.66,-12.44,12.182,24.51,457,0
1189.00,11.79,53.22,23.97,665.32,10.649,-0.601,2.907,15.56,-15.22,-8.28,12.094,29.11,458,0
1190.00,11.87,53.37,23.77,664.74,9.606,0.388,2.835,17.42,-9.93,10.46,11.744,43.94,458,0
1191.00,12.05,53.69,23.75,664.22,10.908,0.719,2.010,30.94,24.34,8.57,13.084,54.73,457,0
1192.00,11.98,53.56,23.34,663.67,9.459,0.069,1.214,19.56,14.06,-5.55,12.487,38.56,459,0
1193.00,11.92,53.46,22.42,663.27,10.007,0.125,1.833,11.56,-1.19,20.91,11.872,28.06,457,0
1194.00,11.84,53.31,21.81,662.79,10.631,0.175,2.109,4.78,15.53,10.16,11.568,26.60,457,0
1195.00,11.75,53.15,20.78,662.26,10.545,0.026,2.414,10.78,-8.21,1.50,11.735,27.50,458,0
1196.00,11.63,52.93,19.69,661.53,11.655,0.676,3.419,49.45,-25.56,18.24,13.405,98.40,458,0
1197.00,11.61,52.90,18.97,661.05,10.018,0.706,1.975,91.16,5.17,34.49,12.274,121.14,458,0
1198.00,11.75,53.15,17.89,660.56,7.960,-0.042,1.905,74.33,-6.75,32.25,10.068,92.72,458,0
1199.00,11.64,52.95,17.21,660.05,11.637,0.952,2.469,74.95,15.85,43.07,14.432,109.65,450,0
1200.00,11.64,52.95,16.82,659.55,10.304,0.773,1.440,48.99,5.75,25.69,12.710,68.78,458,0
1201.00,11.68,53.02,16.25,659.10,11.430,-0.087,1.846,77.89,16.08,35.05,16.994,94.36,458,0
1202.00,11.77,53.19,16.37,658.61,9.538,-0.340,2.025,87.70,10.32,12.14,15.985,95.08,459,0
1203.00,11.79,53.22,16.16,658.11,10.176,-0.253,2.046,88.77,15.23,17.78,13.390,99.09,458,0
1204.00,11.63,52.93,15.96,657.77,11.788,-1.337,2.969,83.16,2.82,-6.27,13.619,104.75,456,0
1205.00,11.34,52.41,15.18,657.01,10.749,-0.349,3.399,42.93,-9.85,-0.41,13.263,49.74,456,0
1206.00,11.32,52.38,14.65,656.40,8.898,0.275,2.077,46.28,1.42,12.20,10.921,57.93,459,0
1207.00,11.41,52.54,14.26,655.95,10.172,-0.369,1.749,22.32,14.69,-1.00,12.200,31.51,457,0
1208.00,11.41,52.54,14.04,655.36,12.688,-1.527,2.739,39.23,-0.26,-19.54,13.886,64.65,458,0
1209.00,11.06,51.91,13.50,654.79,10.324,-1.084,2.941,-25.44,-9.20,-12.93,11.819,49.09,457,0
1210.00,11.04,51.87,13.19,654.21,8.847,-0.161,2.268,-37.32,-0.83,-1.70,9.974,50.89,458,0
1211.00,11.13,52.03,12.83,653.76,9.074,0.340,2.505,-0.45,-6.91,0.52,10.971,34.83,457,0
1212.00,11.09,51.96,12.69,653.27,11.215,1.023,2.654,56.52,-5.02,29.41,12.840,85.80,457,0
1213.00,11.23,52.21,12.44,652.70,11.129,0.264,1.608,51.07,14.10,16.01,12.237,64.55,459,0
1214.00,11.27,52.29,12.60,652.23,9.443,-0.494,2.207,61.91,-3.37,5.00,10.659,66.54,457,0
1215.00,11.15,52.07,12.11,651.59,10.944,0.610,2.675,67.07,-4.38,30.34,11.944,88.45,459,0
1216.00,11.21,52.18,11.73,651.04,11.615,-0.039,1.588,65.18,20.36,12.40,12.302,79.09,455,0
1217.00,11.12,52.02,11.31,650.61,9.964,-0.866,2.572,71.36,-5.03,-0.88,11.670,83.65,458,0
1218.00,11.00,51.80,10.85,650.03,9.640,0.665,2.414,69.81,-2.23,27.44,11.727,89.45,458,0
1219.00,11.09,51.96,10.76,649.56,12.865,-0.741,1.873,72.55,20.09,-1.95,14.329,84.65,457,0
1220.00,10.89,51.60,10.29,649.13,10.926,-1.259,3.378,53.03,-12.36,-3.73,12.534,96.20,458,0
1221.00,10.82,51.48,9.64,648.46,9.441,0.520,2.717,50.59,-2.18,19.55,10.527,71.19,458,0
1222.00,10.98,51.76,9.21,648.09,9.544,0.091,1.537,49.97,12.59,8.54,10.696,61.44,457,0
1223.00,11.07,51.93,9.12,647.72,11.400,-1.018,2.425,58.29,3.23,-4.53,13.226,72.80,457,0
1224.00,10.87,51.57,8.67,647.10,11.726,-0.203,3.544,40.10,-16.98,11.99,13.043,59.34,459,0
1225.00,10.85,51.53,8.33,646.54,10.132,0.589,2.307,65.01,5.71,28.28,11.171,83.64,457,0
1226.00,10.97,51.75,8.11,645.91,9.422,-0.318,1.902,51.59,6.74,-1.25,11.085,61.44,459,0
1227.00,10.91,51.64,7.67,645.51,10.014,0.114,3.120,52.77,-14.99,18.49,12.006,81.50,458,0
1228.00,10.87,51.57,7.60,645.14,9.689,0.966,1.929,104.28,7.06,32.99,11.204,132.24,456,0
1229.00,10.99,51.78,7.53,644.60,10.399,-0.620,2.094,109.65,7.21,24.45,12.002,124.45,458,0
1230.00,10.95,51.71,7.33,644.26,9.485,0.027,2.498,98.18,-2.25,18.66,10.594,104.77,458,0
1231.00,10.99,51.78,7.25,643.78,11.014,-0.133,2.144,76.97,8.16,9.00,12.562,95.54,458,0
1232.00,10.95,51.71,7.26,643.31,11.054,-0.791,2.933,68.23,-9.41,0.40,11.919,78.14,458,0
1233.00,10.85,51.53,7.06,642.62,10.699,0.244,3.019,60.81,-4.99,19.38,11.662,73.93,459,0
1234.00,10.89,51.60,6.81,642.06,9.223,0.074,2.067,48.19,1.01,14.94,10.487,73.96,456,0
1235.00,10.89,51.60,6.62,641.52,9.927,-0.096,2.420,23.61,-11.87,5.00,11.368,36.77,458,0
1236.00,10.90,51.62,6.58,641.04,9.486,-0.270,2.881,10.07,-14.15,2.09,11.352,35.52,458,0
1237.00,10.76,51.37,6.46,640.41,10.129,-0.682,2.871,-38.31,-5.27,-14.86,11.599,55.38,458,0
1238.00,10.77,51.39,6.48,639.86,10.761,-0.602,2.059,-54.48,7.80,-12.79,11.506,63.61,458,0
1239.00,10.83,51.49,6.16,639.29,8.993,-0.026,1.542,-47.64,8.16,-14.36,10.909,54.54,455,0
1240.00,10.84,51.51,6.24,638.78,10.212,0.343,2.168,-60.24,7.87,-5.53,11.912,73.07,459,0
1241.00,10.80,51.44,6.26,638.25,11.204,-0.422,2.961,-67.11,-13.38,-32.58,12.967,92.16,457,0
1242.00,10.74,51.33,6.53,637.59,11.447,-0.852,1.900,-76.65,18.17,-37.61,13.284,99.83,458,0
1243.00,10.74,51.33,6.68,637.06,8.500,0.288,1.728,-86.13,6.04,-15.84,9.692,95.92,458,0
1244.00,10.66,51.19,6.30,636.59,11.018,-0.856,2.521,-90.02,9.25,-46.38,14.812,115.87,457,0
1245.00,10.70,51.26,7.11,636.09,12.484,-0.090,1.345,-109.43,25.01,-23.33,14.045,148.91,450,0
1246.00,10.88,51.58,6.75,635.69,9.326,0.868,2.191,-118.04,2.71,-21.71,10.603,133.34,457,0
1247.00,11.07,51.93,6.35,635.19,8.680,0.272,2.249,-84.26,5.63,-15.96,10.346,101.18,459,0
1248.00,10.80,51.44,6.22,634.80,11.262,0.561,3.230,-46.46,-14.16,-0.35,13.511,68.64,457,0
1249.00,10.64,51.15,5.98,634.21,11.650,0.848,3.526,1.26,-16.89,11.54,13.690,38.06,459,0
1250.00,10.62,51.12,5.98,633.68,9.469,0.524,2.069,51.18,1.36,18.08,10.822,67.31,458,0
1251.00,10.70,51.26,6.00,633.09,9.464,-0.359,2.059,44.62,0.21,-1.60,10.813,52.44,456,0
1252.00,10.49,50.88,5.94,632.61,12.456,-0.490,3.884,39.20,-22.89,-1.81,14.125,53.10,459,0
1253.00,10.46,50.83,5.84,632.02,11.070,1.168,3.204,83.94,-12.16,38.29,13.878,133.33,457,0
1254.00,10.60,51.08,6.00,631.57,9.347,-0.198,1.891,102.81,1.02,14.76,11.051,108.19,459,0
1255.00,10.52,50.94,5.77,630.97,11.987,0.868,2.949,101.28,-7.49,47.85,13.415,131.13,457,0
1256.00,10.58,51.04,5.95,630.53,11.182,-0.638,1.480,102.26,22.21,19.01,12.999,133.30,456,0
1257.00,10.42,50.76,6.02,629.93,10.126,0.001,3.059,91.07,-9.56,30.53,12.163,110.02,457,0
1258.00,10.45,50.81,6.01,629.46,11.836,0.176,1.799,89.00,22.99,19.65,13.205,113.86,458,0
1259.00,10.45,50.81,6.17,629.09,10.023,-0.960,2.495,80.24,-3.36,5.46,12.829,91.92,457,0
1260.00,10.32,50.58,6.07,628.49,8.304,0.384,2.223,76.52,1.35,17.89,10.229,86.22,459,0
1261.00,10.41,50.74,5.93,628.15,10.589,-0.111,1.784,60.57,12.13,8.34,12.320,71.00,457,0
1262.00,10.43,50.77,6.42,627.66,11.640,-0.922,2.599,57.00,0.75,-2.53,12.620,67.51,456,0
1263.00,10.22,50.40,6.02,627.10,10.706,-0.233,3.041,34.40,-9.88,5.94,11.741,44.33,458,0
1264.00,10.23,50.41,6.02,626.56,9.905,0.336,2.265,34.55,1.70,14.31,10.680,47.32,458,0
1265.00,10.24,50.43,5.77,626.02,9.082,0.043,1.532,-0.52,10.36,-2.03,10.156,16.29,459,0
1266.00,10.31,50.56,5.87,625.62,9.040,-0.229,1.222,-38.25,15.00,-3.28,11.050,81.45,458,0
1267.00,10.34,50.61,5.84,625.28,10.942,0.418,1.660,-76.62,15.26,-11.98,12.024,99.09,458,0
1268.00,10.34,50.61,5.75,624.82,11.091,0.529,1.815,-45.46,14.61,-6.09,11.702,56.36,456,0
1269.00,10.30,50.54,5.68,624.39,10.811,0.291,1.709,-31.20,15.47,-11.04,11.426,43.16,458,0
1270.00,10.28,50.50,5.59,623.83,11.408,0.266,1.881,-54.85,15.41,-19.22,12.005,72.12,457,0
1271.00,10.23,50.41,5.43,623.26,9.853,0.366,1.948,-77.36,5.43,-19.88,11.275,97.45,459,0
1272.00,10.24,50.43,5.49,622.74,8.839,-0.036,2.156,-115.05,-1.53,-33.89,9.657,136.33,457,0
1273.00,10.26,50.47,5.36,622.28,8.857,-0.139,2.389,-142.33,1.63,-33.46,11.244,151.04,456,0
1274.00,10.27,50.49,5.67,621.82,11.858,-0.518,2.378,-140.95,13.33,-42.05,13.187,154.61,458,0
1275.00,10.25,50.45,5.46,621.22,11.141,0.666,2.494,-154.81,10.92,-20.71,13.013,167.26,457,0
1276.00,10.18,50.32,5.61,620.55,9.462,0.108,2.616,-137.86,-7.47,-20.69,10.968,155.96,458,0
1277.00,10.18,50.32,5.22,620.26,8.978,-0.212,2.601,-118.11,-10.70,-23.38,11.532,130.96,458,0
1278.00,9.96,49.93,5.42,619.64,12.550,-1.255,2.705,-129.52,-5.83,-46.83,14.647,156.68,457,0
1279.00,10.06,50.11,5.44,619.23,11.441,0.737,2.038,-156.87,19.84,-23.10,13.094,171.93,455,0
1280.00,10.36,50.65,5.52,618.54,8.209,0.019,2.302,-131.11,-0.95,-27.50,9.747,156.11,458,0
1281.00,10.31,50.56,5.36,618.12,12.296,0.740,3.292,-120.69,-4.57,0.99,15.883,136.78,457,0
1282.00,9.90,49.82,5.12,617.77,13.629,-0.981,4.746,-79.18,-31.02,-31.82,16.156,107.02,459,0
1283.00,9.91,49.84,5.62,616.98,9.305,-0.528,1.621,-138.39,8.42,-33.29,11.323,152.10,457,0
1284.00,9.90,49.82,5.40,616.38,9.778,-0.469,2.754,-141.49,-11.97,-46.30,12.623,170.38,458,0
1285.00,9.90,49.82,5.55,615.97,14.771,0.792,2.624,-164.29,18.74,-16.25,16.219,189.41,455,0
1286.00,9.92,49.86,5.21,615.66,11.368,-0.115,4.039,-118.85,-19.89,-29.08,14.319,166.12,458,0
1287.00,10.00,50.00,5.31,615.06,8.700,-0.044,1.804,-131.36,0.28,-19.96,10.068,142.88,457,0
1288.00,9.85,49.73,5.18,614.72,9.514,-0.473,2.956,-109.84,-15.53,-34.55,12.318,139.14,458,0
1289.00,9.86,49.75,5.26,614.39,11.227,-0.298,1.775,-150.54,15.55,-35.67,12.458,175.52,457,0
1290.00,9.87,49.77,5.19,614.11,10.398,0.408,2.911,-132.98,-0.11,-26.14,11.470,156.40,451,0
1291.00,9.84,49.71,5.01,613.64,10.483,-0.187,2.388,-112.19,1.58,-16.96,11.139,122.21,457,0
1292.00,9.82,49.68,4.91,613.15,10.131,0.206,2.345,-100.09,-0.92,-17.54,11.014,106.80,459,0
1293.00,9.80,49.64,4.76,612.70,10.462,-0.056,2.782,-80.98,-12.61,-12.25,11.689,97.47,457,0
1294.00,9.68,49.42,4.75,612.17,10.128,-0.492,2.236,-66.14,-3.04,-25.43,11.326,78.65,459,0
1295.00,9.75,49.55,4.75,611.75,9.082,0.155,1.653,-51.70,8.25,-7.18,9.831,57.38,457,0
1296.00,9.75,49.55,4.57,611.28,10.401,0.717,2.617,-50.49,-3.65,6.68,11.887,68.17,456,0
1297.00,9.56,49.21,4.71,610.91,11.556,0.631,3.409,9.35,-18.05,9.88,12.505,32.26,458,0
1298.00,9.47,49.05,4.44,610.37,10.367,0.545,3.094,38.76,-15.05,11.82,11.591,57.47,459,0
1299.00,9.39,48.90,4.42,609.90,10.008,0.653,2.781,74.12,-10.74,24.24,11.641,105.65,457,0
1300.00,9.48,49.06,4.73,609.42,11.116,0.915,2.264,90.08,-0.93,39.27,11.814,116.87,458,0
1301.00,9.57,49.23,4.59,608.87,11.320,0.347,1.625,78.22,19.07,25.87,12.075,100.56,456,0
1302.00,9.62,49.32,5.23,608.38,10.312,-0.672,1.680,94.82,18.25,15.49,11.518,101.40,457,0
1303.00,9.53,49.15,5.57,607.99,10.798,-0.957,2.616,106.88,5.22,1.16,12.417,117.28,459,0
1304.00,9.47,49.05,5.39,607.61,11.320,-0.931,3.482,64.38,-12.90,-6.83,12.522,83.53,457,0
1305.00,9.31,48.76,5.13,606.95,10.290,-0.074,3.500,75.91,-17.71,8.91,11.615,88.36,459,0
1306.00,9.19,48.54,4.93,606.37,10.579,0.907,3.132,120.63,-15.08,36.58,12.019,163.45,457,0
1307.00,9.26,48.67,4.79,605.94,11.649,0.408,1.783,128.62,16.34,43.47,12.626,154.15,457,0
1308.00,9.30,48.74,5.05,605.45,11.601,-1.217,2.525,134.98,13.57,10.19,12.776,148.47,457,0
1309.00,9.04,48.27,4.89,604.95,10.841,-0.376,3.489,113.35,-15.25,8.59,12.412,124.33,458,0
1310.00,8.95,48.11,4.84,604.39,10.173,0.900,3.042,121.95,-16.52,35.85,11.804,159.21,458,0
1311.00,9.09,48.36,4.94,604.02,11.116,0.461,1.745,123.23,11.84,40.19,12.241,152.07,458,0
1312.00,9.25,48.65,5.39,603.46,12.248,-1.280,2.340,121.33,19.05,12.43,13.047,135.83,458,0
1313.00,8.87,47.97,5.18,602.96,11.125,-0.739,3.413,92.90,-6.53,0.05,12.501,116.62,456,0
1314.00,8.91,48.04,4.98,602.38,9.233,0.198,2.778,85.56,-16.44,11.35,11.743,112.33,458,0
1315.00,8.86,47.95,4.92,601.89,8.328,0.476,2.367,117.06,-12.38,30.66,10.996,143.57,458,0
1316.00,8.97,48.15,4.85,601.49,13.084,0.673,2.163,115.70,10.81,51.66,15.344,148.48,458,0
1317.00,8.98,48.16,5.05,601.12,11.450,-0.973,2.298,106.42,12.90,8.78,14.624,133.23,457,0
1318.00,9.22,48.60,3.19,600.41,9.585,0.030,2.220,90.15,16.18,21.56,12.508,103.02,457,0
1319.00,9.24,48.63,5.26,600.08,11.847,-1.037,2.515,80.28,-2.80,-10.08,13.817,91.70,455,0
1320.00,8.75,47.75,5.35,599.71,10.614,-0.763,3.164,39.44,-10.48,1.32,12.275,60.63,459,0
1321.00,8.80,47.84,5.00,598.96,10.377,-0.213,2.604,31.56,4.81,-3.16,11.400,42.19,458,0
1322.00,8.67,47.61,4.75,598.39,10.411,-0.192,2.677,48.16,-7.79,-6.32,11.258,61.92,458,0
1323.00,8.62,47.52,4.72,597.79,8.626,-0.230,2.244,76.26,2.16,10.55,10.334,88.46,458,0
1324.00,8.64,47.55,4.71,597.38,8.894,-0.090,2.484,88.31,-2.74,-3.03,10.789,98.91,456,0
1325.00,8.60,47.48,4.65,596.98,9.897,0.666,2.229,75.31,8.79,24.53,11.390,94.50,458,0
1326.00,8.71,47.68,4.49,596.51,11.896,-0.175,1.877,66.87,19.20,0.98,13.383,74.34,457,0
1327.00,8.84,47.91,4.75,596.08,9.734,-0.378,1.989,65.28,1.11,4.54,11.712,68.74,459,0
1328.00,9.25,48.65,4.73,595.56,9.860,-0.289,1.925,64.37,13.77,6.78,12.160,69.50,457,0
1329.00,9.05,48.29,5.19,595.08,11.184,-1.108,2.454,74.58,0.25,-5.49,13.004,89.43,458,0
1330.00,8.62,47.52,4.95,594.62,10.615,-0.964,2.800,14.54,-8.06,-10.28,13.082,56.42,455,0
1331.00,8.59,47.46,5.00,594.20,8.976,-0.546,1.683,-29.98,5.34,-12.06,10.173,37.56,458,0
1332.00,8.66,47.59,5.19,593.77,10.747,0.301,1.568,-40.72,18.72,-1.99,12.679,55.40,458,0
1333.00,8.69,47.64,5.15,593.24,11.315,1.109,2.420,-64.93,2.23,5.11,12.743,90.54,457,0
1334.00,8.50,47.30,4.69,593.01,9.692,0.262,2.931,-40.11,-10.26,-12.34,11.671,62.00,458,0
1335.00,8.57,47.43,4.70,592.51,9.883,-0.568,2.328,-58.11,6.53,-19.69,10.966,72.75,458,0
1336.00,8.67,47.61,4.84,592.18,10.977,-0.168,1.913,-63.88,8.24,-13.36,12.125,71.73,450,0
1337.00,8.64,47.55,4.80,591.65,10.457,0.545,2.136,-77.59,6.33,-7.80,11.260,87.78,459,0
1338.00,8.60,47.48,4.66,591.23,9.648,0.162,2.527,-64.11,-8.44,-9.11,10.553,85.85,457,0
1339.00,8.50,47.30,4.66,590.78,9.523,-0.416,2.043,-53.53,2.69,-22.46,10.449,62.47,460,0
1340.00,8.52,47.34,4.65,590.37,10.443,0.157,1.659,-54.03,13.21,-7.51,11.548,64.14,457,0
1341.00,8.56,47.41,4.66,589.91,10.025,0.797,2.212,-66.44,1.33,-1.75,10.814,79.69,458,0
1342.00,8.42,47.16,4.39,589.62,10.404,0.397,2.827,-26.75,-5.67,-1.30,11.320,49.37,456,0
1343.00,8.40,47.12,4.30,589.17,10.601,-0.218,2.810,-5.16,-5.95,-7.22,11.560,16.54,460,0
1344.00,8.27,46.89,4.24,588.71,10.073,-0.583,2.517,-16.52,-5.91,-16.36,10.767,33.39,458,0
1345.00,8.63,47.53,4.44,588.30,10.661,-0.594,2.034,-12.88,5.35,-15.52,11.387,33.58,458,0
1346.00,8.83,47.89,4.93,587.78,10.711,-0.418,1.778,9.31,16.42,-4.17,11.218,22.83,459,0
1347.00,8.76,47.77,4.89,587.26,11.201,-0.130,1.600,15.15,21.78,4.92,11.875,34.73,455,0
1348.00,8.66,47.59,4.92,586.66,10.697,0.099,1.412,21.51,19.30,8.84,11.889,34.81,458,0
